,success,ttype,start_time,trial_type,trial_index,time_elapsed,internal_node_id,warning,missed_checkup,PID,view_history,rt,responses,repeat_instructions,key_press,index,trial_num,isi,iti,is_practice,block,old_trial,pair_type,within_category,high_cat_on_left,left_category,right_category,left_category_value,right_category_value,left_exemplar,right_exemplar,left_exemplar_value,right_exemplar_value,left_img,right_img,left_img_path,right_img_path,left_chosen,chosen_category,unchosen_category,chosen_category_value,unchosen_category_value,chosen_exemplar,unchosen_exemplar,chosen_exemplar_value,unchosen_exemplar_value,no_response,onset,duration,end_practice,total_bonus_tally,category,category_group_value,category_value_response,did_not_enter_response
0,True,full_screen,d06032022hr1517,fullscreen,0,26496,0.0-0.0,0,0,61002,,,,,,,,,,,,,,,,,,,,,,,,,,,,,,,,,,,,,,,,,,,,,
1,,category_learning_instructions,,instructions,1,152265,0.0-1.0-0.0-0.0,0,0,61002,"[{""page_index"":0,""viewing_time"":8841},{""page_index"":1,""viewing_time"":26288},{""page_index"":2,""viewing_time"":11756},{""page_index"":3,""viewing_time"":42314},{""page_index"":4,""viewing_time"":27384},{""page_index"":5,""viewing_time"":5254},{""page_index"":6,""viewing_time"":3928}]",125766.0,,,,,,,,,,,,,,,,,,,,,,,,,,,,,,,,,,,,,,,,,,,
2,,category_learning_comprehension_check,,survey-multi-choice,2,186838,0.0-1.0-0.0-1.0,0,0,61002,,34568.0,"{""Q0"":""True"",""Q1"":""True"",""Q2"":""Stay the same"",""Q3"":""D for left and K for right""}",0.0,,,,,,,,,,,,,,,,,,,,,,,,,,,,,,,,,,,,,,,,,
3,,,,html-keyboard-response,3,189979,0.0-1.0-1.0,0,0,61002,,3137.0,,,68.0,,,,,,,,,,,,,,,,,,,,,,,,,,,,,,,,,,,,,,,,
4,,choice,,html-keyboard-response,4,191131,0.0-1.0-2.0-0.0-0.0,0,0,61002,,1145.0,,,75.0,0.0,0.0,1500.0,1000.0,1.0,0.0,0.0,20-80,,0.0,bagel,dumbbell,20.0,80.0,bagel1,dumbbell1,0.0,80.0,bagels_pumpernickel_large.jpg,31B64EN68AL._AA280_.jpg,/static/Category_learning/Stimuli/Practice_stims/bagel/bagels_pumpernickel_large.jpg,/static/Category_learning/Stimuli/Practice_stims/dumbbell/31B64EN68AL._AA280_.jpg,0.0,dumbbell,bagel,80.0,20.0,dumbbell1,bagel1,80.0,0.0,0.0,1.145,1.145,,,,,,
5,,confirmation,,html-keyboard-response,5,191493,0.0-1.0-2.0-0.0-1.0-0.0,0,0,61002,,,,,,0.0,,,,,,,,,,,,,,,,,,,,,,,,,,,,,,,,1.5,0.355,,,,,,
6,,isi,,html-keyboard-response,6,192997,0.0-1.0-2.0-0.0-2.0,0,0,61002,,,,,,,,,,,,,,,,,,,,,,,,,,,,,,,,,,,,,,3.0,1.5,,,,,,
7,,feedback,,html-keyboard-response,7,194002,0.0-1.0-2.0-0.0-3.0-0.0,0,0,61002,,,,,,0.0,,,,,,,,,,,,,,,,,,,,,,,,,,,,,,,,4.0,1.0,,,,,,
8,,iti,,html-keyboard-response,8,195008,0.0-1.0-2.0-0.0-5.0,0,0,61002,,,,,,,,,,,,,,,,,,,,,,,,,,,,,,,,,,,,,,5.0,1.0,,,,,,
9,,choice,,html-keyboard-response,9,195980,0.0-1.0-3.0-0.0-0.0,0,0,61002,,968.0,,,68.0,1.0,1.0,3000.0,1500.0,1.0,0.0,0.0,20-40,,1.0,calculator,bagel,40.0,20.0,calculator2,bagel2,20.0,20.0,22829064.thl.jpg,bagels_cinnraisin_large.jpg,/static/Category_learning/Stimuli/Practice_stims/calculator/22829064.thl.jpg,/static/Category_learning/Stimuli/Practice_stims/bagel/bagels_cinnraisin_large.jpg,1.0,calculator,bagel,40.0,20.0,calculator2,bagel2,20.0,20.0,0.0,5.968,0.968,,,,,,
10,,confirmation,,html-keyboard-response,10,196517,0.0-1.0-3.0-0.0-1.0-0.0,0,0,61002,,,,,,1.0,,,,,,,,,,,,,,,,,,,,,,,,,,,,,,,,6.5,0.532,,,,,,
11,,isi,,html-keyboard-response,11,199522,0.0-1.0-3.0-0.0-2.0,0,0,61002,,,,,,,,,,,,,,,,,,,,,,,,,,,,,,,,,,,,,,9.5,3.0,,,,,,
12,,feedback,,html-keyboard-response,12,200527,0.0-1.0-3.0-0.0-3.0-0.0,0,0,61002,,,,,,1.0,,,,,,,,,,,,,,,,,,,,,,,,,,,,,,,,10.5,1.0,,,,,,
13,,iti,,html-keyboard-response,13,202031,0.0-1.0-3.0-0.0-5.0,0,0,61002,,,,,,,,,,,,,,,,,,,,,,,,,,,,,,,,,,,,,,12.0,1.5,,,,,,
14,,choice,,html-keyboard-response,14,203067,0.0-1.0-4.0-0.0-0.0,0,0,61002,,1031.0,,,75.0,2.0,2.0,2000.0,3000.0,1.0,0.0,0.0,60-80,,0.0,clock,dumbbell,60.0,80.0,clock2,dumbbell2,60.0,100.0,26373355.thl.jpg,31K8MR6TMBL._SS500_.jpg,/static/Category_learning/Stimuli/Practice_stims/clock/26373355.thl.jpg,/static/Category_learning/Stimuli/Practice_stims/dumbbell/31K8MR6TMBL._SS500_.jpg,0.0,dumbbell,clock,80.0,60.0,dumbbell2,clock2,100.0,60.0,0.0,13.031,1.031,,,,,,
15,,confirmation,,html-keyboard-response,15,203541,0.0-1.0-4.0-0.0-1.0-0.0,0,0,61002,,,,,,2.0,,,,,,,,,,,,,,,,,,,,,,,,,,,,,,,,13.5,0.469,,,,,,
16,,isi,,html-keyboard-response,16,205545,0.0-1.0-4.0-0.0-2.0,0,0,61002,,,,,,,,,,,,,,,,,,,,,,,,,,,,,,,,,,,,,,15.5,2.0,,,,,,
17,,feedback,,html-keyboard-response,17,206552,0.0-1.0-4.0-0.0-3.0-0.0,0,0,61002,,,,,,2.0,,,,,,,,,,,,,,,,,,,,,,,,,,,,,,,,16.5,1.0,,,,,,
18,,iti,,html-keyboard-response,18,209556,0.0-1.0-4.0-0.0-5.0,0,0,61002,,,,,,,,,,,,,,,,,,,,,,,,,,,,,,,,,,,,,,19.5,3.0,,,,,,
19,,choice,,html-keyboard-response,19,210844,0.0-1.0-5.0-0.0-0.0,0,0,61002,,1283.0,,,75.0,3.0,3.0,1000.0,2000.0,1.0,0.0,0.0,40-80,,0.0,calculator,clock,40.0,60.0,calculator1,clock1,40.0,40.0,22829184.thl.jpg,Aalarmclock2.jpg,/static/Category_learning/Stimuli/Practice_stims/calculator/22829184.thl.jpg,/static/Category_learning/Stimuli/Practice_stims/clock/Aalarmclock2.jpg,0.0,clock,calculator,60.0,40.0,clock1,calculator1,40.0,40.0,0.0,20.783,1.283,,,,,,
20,,confirmation,,html-keyboard-response,20,211066,0.0-1.0-5.0-0.0-1.0-0.0,0,0,61002,,,,,,3.0,,,,,,,,,,,,,,,,,,,,,,,,,,,,,,,,21.0,0.217,,,,,,
21,,isi,,html-keyboard-response,21,212070,0.0-1.0-5.0-0.0-2.0,0,0,61002,,,,,,,,,,,,,,,,,,,,,,,,,,,,,,,,,,,,,,22.0,1.0,,,,,,
22,,feedback,,html-keyboard-response,22,213074,0.0-1.0-5.0-0.0-3.0-0.0,0,0,61002,,,,,,3.0,,,,,,,,,,,,,,,,,,,,,,,,,,,,,,,,23.0,1.0,,,,,,
23,,iti,,html-keyboard-response,23,215079,0.0-1.0-5.0-0.0-5.0,0,0,61002,,,,,,,,,,,,,,,,,,,,,,,,,,,,,,,,,,,,,,25.0,2.0,,,,,,
24,,choice,,html-keyboard-response,24,216332,0.0-1.0-6.0-0.0-0.0,0,0,61002,,1248.0,,,68.0,4.0,4.0,2500.0,2500.0,1.0,0.0,0.0,20-60,,1.0,dumbbell,bagel,80.0,20.0,dumbbell3,bagel3,100.0,40.0,41K7QVRX50L._SS500_.jpg,photo-169.jpg,/static/Category_learning/Stimuli/Practice_stims/dumbbell/41K7QVRX50L._SS500_.jpg,/static/Category_learning/Stimuli/Practice_stims/bagel/photo-169.jpg,1.0,dumbbell,bagel,80.0,20.0,dumbbell3,bagel3,100.0,40.0,0.0,26.248,1.248,1.0,,,,,
25,,confirmation,,html-keyboard-response,25,216589,0.0-1.0-6.0-0.0-1.0-0.0,0,0,61002,,,,,,4.0,,,,,,,,,,,,,,,,,,,,,,,,,,,,,,,,26.5,0.252,,,,,,
26,,isi,,html-keyboard-response,26,219094,0.0-1.0-6.0-0.0-2.0,0,0,61002,,,,,,,,,,,,,,,,,,,,,,,,,,,,,,,,,,,,,,29.0,2.5,,,,,,
27,,feedback,,html-keyboard-response,27,220100,0.0-1.0-6.0-0.0-3.0-0.0,0,0,61002,,,,,,4.0,,,,,,,,,,,,,,,,,,,,,,,,,,,,,,,,30.0,1.0,,,,,,
28,,iti,,html-keyboard-response,28,222603,0.0-1.0-6.0-0.0-5.0,0,0,61002,,,,,,,,,,,,,,,,,,,,,,,,,,,,,,,,,,,,,,32.5,2.5,,,,,,
29,,practice_over,,html-keyboard-response,29,225876,0.0-1.0-6.0-0.0-6.0-0.0,0,0,61002,,3270.0,,,68.0,4.0,,,,,,,,,,,,,,,,,,,,,,,,,,,,,,,,,,,,,,,
30,,start_run,,html-keyboard-response,30,230220,0.0-1.0-6.0-0.0-6.0-1.0,0,0,61002,,4340.0,,,84.0,,,,,,,,,,,,,,,,,,,,,,,,,,,,,,,,,,,,,,,,
31,,choice,,html-keyboard-response,31,231564,0.0-1.0-7.0-0.0-0.0,0,0,61002,,1337.0,,,68.0,5.0,5.0,2000.0,3500.0,0.0,1.0,0.0,20-60,,0.0,necklace,bench,20.0,60.0,necklace15,bench3,40.0,40.0,necklascenew04.jpg,26419540.thl.jpg,/static/Category_learning/Stimuli/Experimental_stims/necklace/necklascenew04.jpg,/static/Category_learning/Stimuli/Experimental_stims/bench/26419540.thl.jpg,1.0,necklace,bench,20.0,60.0,necklace15,bench3,40.0,40.0,0.0,1.337,1.337,,,,,,
32,,confirmation,,html-keyboard-response,32,231731,0.0-1.0-7.0-0.0-1.0-0.0,0,0,61002,,,,,,5.0,,,,,,,,,,,,,,,,,,,,,,,,,,,,,,,,1.5,0.163,,,,,,
33,,isi,,html-keyboard-response,33,233735,0.0-1.0-7.0-0.0-2.0,0,0,61002,,,,,,,,,,,,,,,,,,,,,,,,,,,,,,,,,,,,,,3.5,2.0,,,,,,
34,,feedback,,html-keyboard-response,34,234740,0.0-1.0-7.0-0.0-3.0-0.0,0,0,61002,,,,,,5.0,,,,,,,,,,,,,,,,,,,,,,,,,,,,,,,,4.5,1.0,,,,,,
35,,iti,,html-keyboard-response,35,238244,0.0-1.0-7.0-0.0-5.0,0,0,61002,,,,,,,,,,,,,,,,,,,,,,,,,,,,,,,,,,,,,,8.0,3.5,,,,,,
36,,choice,,html-keyboard-response,36,239541,0.0-1.0-8.0-0.0-0.0,0,0,61002,,1291.0,,,75.0,6.0,6.0,2000.0,1000.0,0.0,1.0,0.0,20-20,,,power strip,seashell,20.0,20.0,power strip8,seashell7,40.0,20.0,3118YGHQWXL._AA262_.jpg,seashell34.jpg,/static/Category_learning/Stimuli/Experimental_stims/power strip/3118YGHQWXL._AA262_.jpg,/static/Category_learning/Stimuli/Experimental_stims/seashell/seashell34.jpg,0.0,seashell,power strip,20.0,20.0,seashell7,power strip8,20.0,40.0,0.0,9.291,1.291,,,,,,
37,,confirmation,,html-keyboard-response,37,239755,0.0-1.0-8.0-0.0-1.0-0.0,0,0,61002,,,,,,6.0,,,,,,,,,,,,,,,,,,,,,,,,,,,,,,,,9.5,0.209,,,,,,
38,,isi,,html-keyboard-response,38,241759,0.0-1.0-8.0-0.0-2.0,0,0,61002,,,,,,,,,,,,,,,,,,,,,,,,,,,,,,,,,,,,,,11.5,2.0,,,,,,
39,,feedback,,html-keyboard-response,39,242764,0.0-1.0-8.0-0.0-3.0-0.0,0,0,61002,,,,,,6.0,,,,,,,,,,,,,,,,,,,,,,,,,,,,,,,,12.5,1.0,,,,,,
40,,iti,,html-keyboard-response,40,243767,0.0-1.0-8.0-0.0-5.0,0,0,61002,,,,,,,,,,,,,,,,,,,,,,,,,,,,,,,,,,,,,,13.5,1.0,,,,,,
41,,choice,,html-keyboard-response,41,244820,0.0-1.0-9.0-0.0-0.0,0,0,61002,,1047.0,,,68.0,7.0,7.0,1500.0,2000.0,0.0,1.0,0.0,20-40,,1.0,telescope,poker card,40.0,20.0,telescope1,poker card9,20.0,40.0,celestron nexstar 114 gt reflector telescope.jpg,9817230.thl.jpg,/static/Category_learning/Stimuli/Experimental_stims/telescope/celestron nexstar 114 gt reflector telescope.jpg,/static/Category_learning/Stimuli/Experimental_stims/poker card/9817230.thl.jpg,1.0,telescope,poker card,40.0,20.0,telescope1,poker card9,20.0,40.0,0.0,14.547,1.047,,,,,,
42,,confirmation,,html-keyboard-response,42,245277,0.0-1.0-9.0-0.0-1.0-0.0,0,0,61002,,,,,,7.0,,,,,,,,,,,,,,,,,,,,,,,,,,,,,,,,15.0,0.453,,,,,,
43,,isi,,html-keyboard-response,43,246791,0.0-1.0-9.0-0.0-2.0,0,0,61002,,,,,,,,,,,,,,,,,,,,,,,,,,,,,,,,,,,,,,16.5,1.5,,,,,,
44,,feedback,,html-keyboard-response,44,247795,0.0-1.0-9.0-0.0-3.0-0.0,0,0,61002,,,,,,7.0,,,,,,,,,,,,,,,,,,,,,,,,,,,,,,,,17.5,1.0,,,,,,
45,,iti,,html-keyboard-response,45,249800,0.0-1.0-9.0-0.0-5.0,0,0,61002,,,,,,,,,,,,,,,,,,,,,,,,,,,,,,,,,,,,,,19.5,2.0,,,,,,
46,,choice,,html-keyboard-response,46,250988,0.0-1.0-10.0-0.0-0.0,0,0,61002,,1184.0,,,68.0,8.0,8.0,3500.0,1000.0,0.0,1.0,0.0,60-60,,,door knob,dresser,60.0,60.0,door knob7,dresser4,40.0,80.0,doorknob2.jpg,ADRESSE40.jpg,/static/Category_learning/Stimuli/Experimental_stims/door knob/doorknob2.jpg,/static/Category_learning/Stimuli/Experimental_stims/dresser/ADRESSE40.jpg,1.0,door knob,dresser,60.0,60.0,door knob7,dresser4,40.0,80.0,0.0,20.684,1.184,,,,,,
47,,confirmation,,html-keyboard-response,47,251310,0.0-1.0-10.0-0.0-1.0-0.0,0,0,61002,,,,,,8.0,,,,,,,,,,,,,,,,,,,,,,,,,,,,,,,,21.0,0.316,,,,,,
48,,isi,,html-keyboard-response,48,254816,0.0-1.0-10.0-0.0-2.0,0,0,61002,,,,,,,,,,,,,,,,,,,,,,,,,,,,,,,,,,,,,,24.5,3.5,,,,,,
49,,feedback,,html-keyboard-response,49,255821,0.0-1.0-10.0-0.0-3.0-0.0,0,0,61002,,,,,,8.0,,,,,,,,,,,,,,,,,,,,,,,,,,,,,,,,25.5,1.0,,,,,,
50,,iti,,html-keyboard-response,50,256825,0.0-1.0-10.0-0.0-5.0,0,0,61002,,,,,,,,,,,,,,,,,,,,,,,,,,,,,,,,,,,,,,26.5,1.0,,,,,,
51,,choice,,html-keyboard-response,51,257907,0.0-1.0-11.0-0.0-0.0,0,0,61002,,1077.0,,,68.0,9.0,9.0,1000.0,1000.0,0.0,1.0,0.0,20-60,,0.0,poker card,desk,20.0,60.0,poker card8,desk13,20.0,80.0,22864392.thl.jpg,26427865.thl.jpg,/static/Category_learning/Stimuli/Experimental_stims/poker card/22864392.thl.jpg,/static/Category_learning/Stimuli/Experimental_stims/desk/26427865.thl.jpg,1.0,poker card,desk,20.0,60.0,poker card8,desk13,20.0,80.0,0.0,27.577,1.077,,,,,,
52,,confirmation,,html-keyboard-response,52,258337,0.0-1.0-11.0-0.0-1.0-0.0,0,0,61002,,,,,,9.0,,,,,,,,,,,,,,,,,,,,,,,,,,,,,,,,28.0,0.423,,,,,,
53,,isi,,html-keyboard-response,53,259341,0.0-1.0-11.0-0.0-2.0,0,0,61002,,,,,,,,,,,,,,,,,,,,,,,,,,,,,,,,,,,,,,29.0,1.0,,,,,,
54,,feedback,,html-keyboard-response,54,260346,0.0-1.0-11.0-0.0-3.0-0.0,0,0,61002,,,,,,9.0,,,,,,,,,,,,,,,,,,,,,,,,,,,,,,,,30.0,1.0,,,,,,
55,,iti,,html-keyboard-response,55,261351,0.0-1.0-11.0-0.0-5.0,0,0,61002,,,,,,,,,,,,,,,,,,,,,,,,,,,,,,,,,,,,,,31.0,1.0,,,,,,
56,,choice,,html-keyboard-response,56,262858,0.0-1.0-12.0-0.0-0.0,0,0,61002,,,,,,10.0,10.0,1000.0,1000.0,0.0,1.0,0.0,20-60,,1.0,bench,nail polish,60.0,20.0,bench8,nail polish6,80.0,0.0,APARKBE14.jpg,127_t.jpg,/static/Category_learning/Stimuli/Experimental_stims/bench/APARKBE14.jpg,/static/Category_learning/Stimuli/Experimental_stims/nail polish/127_t.jpg,,,,,,,,,,1.0,32.5,1.5,,,,,,
57,,isi,,html-keyboard-response,57,263862,0.0-1.0-12.0-0.0-2.0,0,0,61002,,,,,,,,,,,,,,,,,,,,,,,,,,,,,,,,,,,,,,33.5,1.0,,,,,,
58,,no_response,,html-keyboard-response,58,264866,0.0-1.0-12.0-0.0-4.0-0.0,0,0,61002,,,,,,,,,,,,,,,,,,,,,,,,,,,,,,,,,,,,,,34.5,1.0,,,,,,
59,,iti,,html-keyboard-response,59,265904,0.0-1.0-12.0-0.0-5.0,0,0,61002,,,,,,,,,,,,,,,,,,,,,,,,,,,,,,,,,,,,,,35.5,1.0,,,,,,
60,,choice,,html-keyboard-response,60,266411,0.0-1.0-12.0-0.1-0.1,0,0,61002,,502.0,,,68.0,10.0,10.0,1000.0,1000.0,0.0,1.0,0.0,20-60,,1.0,bench,nail polish,60.0,20.0,bench8,nail polish6,80.0,0.0,APARKBE14.jpg,127_t.jpg,/static/Category_learning/Stimuli/Experimental_stims/bench/APARKBE14.jpg,/static/Category_learning/Stimuli/Experimental_stims/nail polish/127_t.jpg,1.0,bench,nail polish,60.0,20.0,bench8,nail polish6,80.0,0.0,0.0,36.002,0.502,,,,,,
61,,confirmation,,html-keyboard-response,61,267415,0.0-1.0-12.0-0.1-1.1-0.1,0,0,61002,,,,,,10.0,,,,,,,,,,,,,,,,,,,,,,,,,,,,,,,,37.0,0.998,,,,,,
62,,isi,,html-keyboard-response,62,269418,0.0-1.0-12.0-0.1-2.1,0,0,61002,,,,,,,,,,,,,,,,,,,,,,,,,,,,,,,,,,,,,,39.0,2.0,,,,,,
63,,feedback,,html-keyboard-response,63,270423,0.0-1.0-12.0-0.1-3.1-0.1,0,0,61002,,,,,,10.0,,,,,,,,,,,,,,,,,,,,,,,,,,,,,,,,40.0,1.0,,,,,,
64,,iti,,html-keyboard-response,64,271927,0.0-1.0-12.0-0.1-5.1,0,0,61002,,,,,,,,,,,,,,,,,,,,,,,,,,,,,,,,,,,,,,41.5,1.5,,,,,,
65,,choice,,html-keyboard-response,65,272699,0.0-1.0-13.0-0.0-0.0,0,0,61002,,768.0,,,75.0,11.0,11.0,1500.0,3000.0,0.0,1.0,0.0,20-80,,0.0,pen,microscope,20.0,80.0,pen11,microscope4,0.0,80.0,pen01.jpg,55071208.JPG,/static/Category_learning/Stimuli/Experimental_stims/pen/pen01.jpg,/static/Category_learning/Stimuli/Experimental_stims/microscope/55071208.JPG,0.0,microscope,pen,80.0,20.0,microscope4,pen11,80.0,0.0,0.0,42.268,0.768,,,,,,
66,,confirmation,,html-keyboard-response,66,273437,0.0-1.0-13.0-0.0-1.0-0.0,0,0,61002,,,,,,11.0,,,,,,,,,,,,,,,,,,,,,,,,,,,,,,,,43.0,0.732,,,,,,
67,,isi,,html-keyboard-response,67,274941,0.0-1.0-13.0-0.0-2.0,0,0,61002,,,,,,,,,,,,,,,,,,,,,,,,,,,,,,,,,,,,,,44.5,1.5,,,,,,
68,,feedback,,html-keyboard-response,68,275946,0.0-1.0-13.0-0.0-3.0-0.0,0,0,61002,,,,,,11.0,,,,,,,,,,,,,,,,,,,,,,,,,,,,,,,,45.5,1.0,,,,,,
69,,iti,,html-keyboard-response,69,278951,0.0-1.0-13.0-0.0-5.0,0,0,61002,,,,,,,,,,,,,,,,,,,,,,,,,,,,,,,,,,,,,,48.5,3.0,,,,,,
70,,choice,,html-keyboard-response,70,279892,0.0-1.0-14.0-0.0-0.0,0,0,61002,,935.0,,,75.0,12.0,12.0,1500.0,2000.0,0.0,1.0,0.0,20-60,,0.0,necklace,bowl,20.0,60.0,necklace1,bowl14,0.0,60.0,26443173.thl.jpg,Aredglassbowl.jpg,/static/Category_learning/Stimuli/Experimental_stims/necklace/26443173.thl.jpg,/static/Category_learning/Stimuli/Experimental_stims/bowl/Aredglassbowl.jpg,0.0,bowl,necklace,60.0,20.0,bowl14,necklace1,60.0,0.0,0.0,49.435,0.935,,,,,,
71,,confirmation,,html-keyboard-response,71,280462,0.0-1.0-14.0-0.0-1.0-0.0,0,0,61002,,,,,,12.0,,,,,,,,,,,,,,,,,,,,,,,,,,,,,,,,50.0,0.565,,,,,,
72,,isi,,html-keyboard-response,72,281971,0.0-1.0-14.0-0.0-2.0,0,0,61002,,,,,,,,,,,,,,,,,,,,,,,,,,,,,,,,,,,,,,51.5,1.5,,,,,,
73,,feedback,,html-keyboard-response,73,282976,0.0-1.0-14.0-0.0-3.0-0.0,0,0,61002,,,,,,12.0,,,,,,,,,,,,,,,,,,,,,,,,,,,,,,,,52.5,1.0,,,,,,
74,,iti,,html-keyboard-response,74,284980,0.0-1.0-14.0-0.0-5.0,0,0,61002,,,,,,,,,,,,,,,,,,,,,,,,,,,,,,,,,,,,,,54.5,2.0,,,,,,
75,,choice,,html-keyboard-response,75,285899,0.0-1.0-15.0-0.0-0.0,0,0,61002,,914.0,,,68.0,13.0,13.0,3500.0,3500.0,0.0,1.0,1.0,20-80,0.0,,microscope,necklace,80.0,20.0,microscope4,necklace15,80.0,40.0,55071208.JPG,necklascenew04.jpg,/static/Category_learning/Stimuli/Experimental_stims/microscope/55071208.JPG,/static/Category_learning/Stimuli/Experimental_stims/necklace/necklascenew04.jpg,1.0,microscope,necklace,80.0,20.0,microscope4,necklace15,80.0,40.0,0.0,55.414,0.914,,,,,,
76,,confirmation,,html-keyboard-response,76,286491,0.0-1.0-15.0-0.0-1.0-0.0,0,0,61002,,,,,,13.0,,,,,,,,,,,,,,,,,,,,,,,,,,,,,,,,56.0,0.586,,,,,,
77,,isi,,html-keyboard-response,77,289995,0.0-1.0-15.0-0.0-2.0,0,0,61002,,,,,,,,,,,,,,,,,,,,,,,,,,,,,,,,,,,,,,59.5,3.5,,,,,,
78,,feedback,,html-keyboard-response,78,291000,0.0-1.0-15.0-0.0-3.0-0.0,0,0,61002,,,,,,13.0,,,,,,,,,,,,,,,,,,,,,,,,,,,,,,,,60.5,1.0,,,,,,
79,,iti,,html-keyboard-response,79,294505,0.0-1.0-15.0-0.0-5.0,0,0,61002,,,,,,,,,,,,,,,,,,,,,,,,,,,,,,,,,,,,,,64.0,3.5,,,,,,
80,,choice,,html-keyboard-response,80,295468,0.0-1.0-16.0-0.0-0.0,0,0,61002,,957.0,,,75.0,14.0,14.0,1000.0,1000.0,0.0,1.0,0.0,60-80,,1.0,microscope,bench,80.0,60.0,microscope12,bench12,60.0,80.0,usbdigitalmicroscope1_small1.jpg,22927976.thl.jpg,/static/Category_learning/Stimuli/Experimental_stims/microscope/usbdigitalmicroscope1_small1.jpg,/static/Category_learning/Stimuli/Experimental_stims/bench/22927976.thl.jpg,0.0,bench,microscope,60.0,80.0,bench12,microscope12,80.0,60.0,0.0,64.957,0.957,,,,,,
81,,confirmation,,html-keyboard-response,81,296018,0.0-1.0-16.0-0.0-1.0-0.0,0,0,61002,,,,,,14.0,,,,,,,,,,,,,,,,,,,,,,,,,,,,,,,,65.5,0.543,,,,,,
82,,isi,,html-keyboard-response,82,297037,0.0-1.0-16.0-0.0-2.0,0,0,61002,,,,,,,,,,,,,,,,,,,,,,,,,,,,,,,,,,,,,,66.5,1.0,,,,,,
83,,feedback,,html-keyboard-response,83,298042,0.0-1.0-16.0-0.0-3.0-0.0,0,0,61002,,,,,,14.0,,,,,,,,,,,,,,,,,,,,,,,,,,,,,,,,67.5,1.0,,,,,,
84,,iti,,html-keyboard-response,84,299046,0.0-1.0-16.0-0.0-5.0,0,0,61002,,,,,,,,,,,,,,,,,,,,,,,,,,,,,,,,,,,,,,68.5,1.0,,,,,,
85,,choice,,html-keyboard-response,85,299683,0.0-1.0-17.0-0.0-0.0,0,0,61002,,632.0,,,75.0,15.0,15.0,1000.0,1000.0,0.0,1.0,1.0,60-60,1.0,,bench,bench,60.0,60.0,bench8,bench12,80.0,80.0,APARKBE14.jpg,22927976.thl.jpg,/static/Category_learning/Stimuli/Experimental_stims/bench/APARKBE14.jpg,/static/Category_learning/Stimuli/Experimental_stims/bench/22927976.thl.jpg,0.0,bench,bench,60.0,60.0,bench12,bench8,80.0,80.0,0.0,69.132,0.632,,,,,,
86,,confirmation,,html-keyboard-response,86,300556,0.0-1.0-17.0-0.0-1.0-0.0,0,0,61002,,,,,,15.0,,,,,,,,,,,,,,,,,,,,,,,,,,,,,,,,70.0,0.868,,,,,,
87,,isi,,html-keyboard-response,87,301560,0.0-1.0-17.0-0.0-2.0,0,0,61002,,,,,,,,,,,,,,,,,,,,,,,,,,,,,,,,,,,,,,71.0,1.0,,,,,,
88,,feedback,,html-keyboard-response,88,302564,0.0-1.0-17.0-0.0-3.0-0.0,0,0,61002,,,,,,15.0,,,,,,,,,,,,,,,,,,,,,,,,,,,,,,,,72.0,1.0,,,,,,
89,,iti,,html-keyboard-response,89,303568,0.0-1.0-17.0-0.0-5.0,0,0,61002,,,,,,,,,,,,,,,,,,,,,,,,,,,,,,,,,,,,,,73.0,1.0,,,,,,
90,,choice,,html-keyboard-response,90,304555,0.0-1.0-18.0-0.0-0.0,0,0,61002,,982.0,,,68.0,16.0,16.0,1000.0,1000.0,0.0,1.0,0.0,20-40,,0.0,poker card,yarn,20.0,40.0,poker card3,yarn4,0.0,40.0,9817131.thl.jpg,amethyst dreaming boho hy sml.jpg,/static/Category_learning/Stimuli/Experimental_stims/poker card/9817131.thl.jpg,/static/Category_learning/Stimuli/Experimental_stims/yarn/amethyst dreaming boho hy sml.jpg,1.0,poker card,yarn,20.0,40.0,poker card3,yarn4,0.0,40.0,0.0,73.982,0.982,,,,,,
91,,confirmation,,html-keyboard-response,91,305078,0.0-1.0-18.0-0.0-1.0-0.0,0,0,61002,,,,,,16.0,,,,,,,,,,,,,,,,,,,,,,,,,,,,,,,,74.5,0.518,,,,,,
92,,isi,,html-keyboard-response,92,306082,0.0-1.0-18.0-0.0-2.0,0,0,61002,,,,,,,,,,,,,,,,,,,,,,,,,,,,,,,,,,,,,,75.5,1.0,,,,,,
93,,feedback,,html-keyboard-response,93,307087,0.0-1.0-18.0-0.0-3.0-0.0,0,0,61002,,,,,,16.0,,,,,,,,,,,,,,,,,,,,,,,,,,,,,,,,76.5,1.0,,,,,,
94,,iti,,html-keyboard-response,94,308092,0.0-1.0-18.0-0.0-5.0,0,0,61002,,,,,,,,,,,,,,,,,,,,,,,,,,,,,,,,,,,,,,77.5,1.0,,,,,,
95,,choice,,html-keyboard-response,95,309404,0.0-1.0-19.0-0.0-0.0,0,0,61002,,1306.0,,,68.0,17.0,17.0,3500.0,1000.0,0.0,1.0,0.0,40-80,,0.0,trumpet,microscope,40.0,80.0,trumpet11,microscope8,20.0,80.0,JUPITER+JTR604L.jpg,AMICROS21.jpg,/static/Category_learning/Stimuli/Experimental_stims/trumpet/JUPITER+JTR604L.jpg,/static/Category_learning/Stimuli/Experimental_stims/microscope/AMICROS21.jpg,1.0,trumpet,microscope,40.0,80.0,trumpet11,microscope8,20.0,80.0,0.0,78.806,1.306,,,,,,
96,,confirmation,,html-keyboard-response,96,309608,0.0-1.0-19.0-0.0-1.0-0.0,0,0,61002,,,,,,17.0,,,,,,,,,,,,,,,,,,,,,,,,,,,,,,,,79.0,0.194,,,,,,
97,,isi,,html-keyboard-response,97,313112,0.0-1.0-19.0-0.0-2.0,0,0,61002,,,,,,,,,,,,,,,,,,,,,,,,,,,,,,,,,,,,,,82.5,3.5,,,,,,
98,,feedback,,html-keyboard-response,98,314117,0.0-1.0-19.0-0.0-3.0-0.0,0,0,61002,,,,,,17.0,,,,,,,,,,,,,,,,,,,,,,,,,,,,,,,,83.5,1.0,,,,,,
99,,iti,,html-keyboard-response,99,315121,0.0-1.0-19.0-0.0-5.0,0,0,61002,,,,,,,,,,,,,,,,,,,,,,,,,,,,,,,,,,,,,,84.5,1.0,,,,,,
100,,choice,,html-keyboard-response,100,316123,0.0-1.0-20.0-0.0-0.0,0,0,61002,,998.0,,,75.0,18.0,18.0,1500.0,1000.0,0.0,1.0,0.0,60-80,,0.0,baby carriage,hammer,60.0,80.0,baby carriage5,hammer8,80.0,80.0,Baby_Stroller.jpg,ct1006_hammer.jpg,/static/Category_learning/Stimuli/Experimental_stims/baby carriage/Baby_Stroller.jpg,/static/Category_learning/Stimuli/Experimental_stims/hammer/ct1006_hammer.jpg,0.0,hammer,baby carriage,80.0,60.0,hammer8,baby carriage5,80.0,80.0,0.0,85.498,0.998,,,,,,
101,,confirmation,,html-keyboard-response,101,316632,0.0-1.0-20.0-0.0-1.0-0.0,0,0,61002,,,,,,18.0,,,,,,,,,,,,,,,,,,,,,,,,,,,,,,,,86.0,0.502,,,,,,
102,,isi,,html-keyboard-response,102,318136,0.0-1.0-20.0-0.0-2.0,0,0,61002,,,,,,,,,,,,,,,,,,,,,,,,,,,,,,,,,,,,,,87.5,1.5,,,,,,
103,,feedback,,html-keyboard-response,103,319152,0.0-1.0-20.0-0.0-3.0-0.0,0,0,61002,,,,,,18.0,,,,,,,,,,,,,,,,,,,,,,,,,,,,,,,,88.5,1.0,,,,,,
104,,iti,,html-keyboard-response,104,320156,0.0-1.0-20.0-0.0-5.0,0,0,61002,,,,,,,,,,,,,,,,,,,,,,,,,,,,,,,,,,,,,,89.5,1.0,,,,,,
105,,choice,,html-keyboard-response,105,321099,0.0-1.0-21.0-0.0-0.0,0,0,61002,,938.0,,,75.0,19.0,19.0,1500.0,3500.0,0.0,1.0,0.0,60-60,,,fan,flashlight,60.0,60.0,fan6,flashlight1,60.0,40.0,30090.fpx.jpg,Graphite3D.jpg,/static/Category_learning/Stimuli/Experimental_stims/fan/30090.fpx.jpg,/static/Category_learning/Stimuli/Experimental_stims/flashlight/Graphite3D.jpg,0.0,flashlight,fan,60.0,60.0,flashlight1,fan6,40.0,60.0,0.0,90.438,0.938,,,,,,
106,,confirmation,,html-keyboard-response,106,321665,0.0-1.0-21.0-0.0-1.0-0.0,0,0,61002,,,,,,19.0,,,,,,,,,,,,,,,,,,,,,,,,,,,,,,,,91.0,0.562,,,,,,
107,,isi,,html-keyboard-response,107,323169,0.0-1.0-21.0-0.0-2.0,0,0,61002,,,,,,,,,,,,,,,,,,,,,,,,,,,,,,,,,,,,,,92.5,1.5,,,,,,
108,,feedback,,html-keyboard-response,108,324174,0.0-1.0-21.0-0.0-3.0-0.0,0,0,61002,,,,,,19.0,,,,,,,,,,,,,,,,,,,,,,,,,,,,,,,,93.5,1.0,,,,,,
109,,iti,,html-keyboard-response,109,327677,0.0-1.0-21.0-0.0-5.0,0,0,61002,,,,,,,,,,,,,,,,,,,,,,,,,,,,,,,,,,,,,,97.0,3.5,,,,,,
110,,choice,,html-keyboard-response,110,328563,0.0-1.0-22.0-0.0-0.0,0,0,61002,,882.0,,,75.0,20.0,20.0,1000.0,1000.0,0.0,1.0,0.0,20-80,,1.0,frame,patio lounge chair,80.0,20.0,frame11,patio lounge chair9,100.0,20.0,AFRAME139.jpg,43-3.jpg,/static/Category_learning/Stimuli/Experimental_stims/frame/AFRAME139.jpg,/static/Category_learning/Stimuli/Experimental_stims/patio lounge chair/43-3.jpg,0.0,patio lounge chair,frame,20.0,80.0,patio lounge chair9,frame11,20.0,100.0,0.0,97.882,0.882,,,,,,
111,,confirmation,,html-keyboard-response,111,329186,0.0-1.0-22.0-0.0-1.0-0.0,0,0,61002,,,,,,20.0,,,,,,,,,,,,,,,,,,,,,,,,,,,,,,,,98.5,0.618,,,,,,
112,,isi,,html-keyboard-response,112,330191,0.0-1.0-22.0-0.0-2.0,0,0,61002,,,,,,,,,,,,,,,,,,,,,,,,,,,,,,,,,,,,,,99.5,1.0,,,,,,
113,,feedback,,html-keyboard-response,113,331195,0.0-1.0-22.0-0.0-3.0-0.0,0,0,61002,,,,,,20.0,,,,,,,,,,,,,,,,,,,,,,,,,,,,,,,,100.5,1.0,,,,,,
114,,iti,,html-keyboard-response,114,332199,0.0-1.0-22.0-0.0-5.0,0,0,61002,,,,,,,,,,,,,,,,,,,,,,,,,,,,,,,,,,,,,,101.5,1.0,,,,,,
115,,choice,,html-keyboard-response,115,333084,0.0-1.0-23.0-0.0-0.0,0,0,61002,,880.0,,,68.0,21.0,21.0,2000.0,1000.0,0.0,1.0,0.0,40-80,,0.0,telescope,license plate,40.0,80.0,telescope11,license plate14,40.0,100.0,digimarc.ms03.jpg,fl-hel-bel.jpg,/static/Category_learning/Stimuli/Experimental_stims/telescope/digimarc.ms03.jpg,/static/Category_learning/Stimuli/Experimental_stims/license plate/fl-hel-bel.jpg,1.0,telescope,license plate,40.0,80.0,telescope11,license plate14,40.0,100.0,0.0,102.38,0.88,,,,,,
116,,confirmation,,html-keyboard-response,116,333709,0.0-1.0-23.0-0.0-1.0-0.0,0,0,61002,,,,,,21.0,,,,,,,,,,,,,,,,,,,,,,,,,,,,,,,,103.0,0.62,,,,,,
117,,isi,,html-keyboard-response,117,335713,0.0-1.0-23.0-0.0-2.0,0,0,61002,,,,,,,,,,,,,,,,,,,,,,,,,,,,,,,,,,,,,,105.0,2.0,,,,,,
118,,feedback,,html-keyboard-response,118,336718,0.0-1.0-23.0-0.0-3.0-0.0,0,0,61002,,,,,,21.0,,,,,,,,,,,,,,,,,,,,,,,,,,,,,,,,106.0,1.0,,,,,,
119,,iti,,html-keyboard-response,119,337721,0.0-1.0-23.0-0.0-5.0,0,0,61002,,,,,,,,,,,,,,,,,,,,,,,,,,,,,,,,,,,,,,107.0,1.0,,,,,,
120,,choice,,html-keyboard-response,120,338595,0.0-1.0-24.0-0.0-0.0,0,0,61002,,869.0,,,68.0,22.0,22.0,1000.0,1500.0,0.0,1.0,1.0,40-40,1.0,,telescope,telescope,40.0,40.0,telescope11,telescope1,40.0,20.0,digimarc.ms03.jpg,celestron nexstar 114 gt reflector telescope.jpg,/static/Category_learning/Stimuli/Experimental_stims/telescope/digimarc.ms03.jpg,/static/Category_learning/Stimuli/Experimental_stims/telescope/celestron nexstar 114 gt reflector telescope.jpg,1.0,telescope,telescope,40.0,40.0,telescope11,telescope1,40.0,20.0,0.0,107.869,0.869,,,,,,
121,,confirmation,,html-keyboard-response,121,339231,0.0-1.0-24.0-0.0-1.0-0.0,0,0,61002,,,,,,22.0,,,,,,,,,,,,,,,,,,,,,,,,,,,,,,,,108.5,0.631,,,,,,
122,,isi,,html-keyboard-response,122,340235,0.0-1.0-24.0-0.0-2.0,0,0,61002,,,,,,,,,,,,,,,,,,,,,,,,,,,,,,,,,,,,,,109.5,1.0,,,,,,
123,,feedback,,html-keyboard-response,123,341240,0.0-1.0-24.0-0.0-3.0-0.0,0,0,61002,,,,,,22.0,,,,,,,,,,,,,,,,,,,,,,,,,,,,,,,,110.5,1.0,,,,,,
124,,iti,,html-keyboard-response,124,342745,0.0-1.0-24.0-0.0-5.0,0,0,61002,,,,,,,,,,,,,,,,,,,,,,,,,,,,,,,,,,,,,,112.0,1.5,,,,,,
125,,choice,,html-keyboard-response,125,343684,0.0-1.0-25.0-0.0-0.0,0,0,61002,,934.0,,,75.0,23.0,23.0,1000.0,1500.0,0.0,1.0,0.0,40-80,,1.0,license plate,train,80.0,40.0,license plate9,train6,60.0,20.0,nm-dhg089.jpg,train9.jpg,/static/Category_learning/Stimuli/Experimental_stims/license plate/nm-dhg089.jpg,/static/Category_learning/Stimuli/Experimental_stims/train/train9.jpg,0.0,train,license plate,40.0,80.0,train6,license plate9,20.0,60.0,0.0,112.934,0.934,,,,,,
126,,confirmation,,html-keyboard-response,126,344254,0.0-1.0-25.0-0.0-1.0-0.0,0,0,61002,,,,,,23.0,,,,,,,,,,,,,,,,,,,,,,,,,,,,,,,,113.5,0.566,,,,,,
127,,isi,,html-keyboard-response,127,345259,0.0-1.0-25.0-0.0-2.0,0,0,61002,,,,,,,,,,,,,,,,,,,,,,,,,,,,,,,,,,,,,,114.5,1.0,,,,,,
128,,feedback,,html-keyboard-response,128,346264,0.0-1.0-25.0-0.0-3.0-0.0,0,0,61002,,,,,,23.0,,,,,,,,,,,,,,,,,,,,,,,,,,,,,,,,115.5,1.0,,,,,,
129,,iti,,html-keyboard-response,129,347768,0.0-1.0-25.0-0.0-5.0,0,0,61002,,,,,,,,,,,,,,,,,,,,,,,,,,,,,,,,,,,,,,117.0,1.5,,,,,,
130,,choice,,html-keyboard-response,130,348659,0.0-1.0-26.0-0.0-0.0,0,0,61002,,883.0,,,75.0,24.0,24.0,2000.0,1500.0,0.0,1.0,1.0,20-20,1.0,,poker card,poker card,20.0,20.0,poker card3,poker card8,0.0,20.0,9817131.thl.jpg,22864392.thl.jpg,/static/Category_learning/Stimuli/Experimental_stims/poker card/9817131.thl.jpg,/static/Category_learning/Stimuli/Experimental_stims/poker card/22864392.thl.jpg,0.0,poker card,poker card,20.0,20.0,poker card8,poker card3,20.0,0.0,0.0,117.883,0.883,,,,,,
131,,confirmation,,html-keyboard-response,131,349281,0.0-1.0-26.0-0.0-1.0-0.0,0,0,61002,,,,,,24.0,,,,,,,,,,,,,,,,,,,,,,,,,,,,,,,,118.5,0.617,,,,,,
132,,isi,,html-keyboard-response,132,351285,0.0-1.0-26.0-0.0-2.0,0,0,61002,,,,,,,,,,,,,,,,,,,,,,,,,,,,,,,,,,,,,,120.5,2.0,,,,,,
133,,feedback,,html-keyboard-response,133,352300,0.0-1.0-26.0-0.0-3.0-0.0,0,0,61002,,,,,,24.0,,,,,,,,,,,,,,,,,,,,,,,,,,,,,,,,121.5,1.0,,,,,,
134,,iti,,html-keyboard-response,134,353804,0.0-1.0-26.0-0.0-5.0,0,0,61002,,,,,,,,,,,,,,,,,,,,,,,,,,,,,,,,,,,,,,123.0,1.5,,,,,,
135,,choice,,html-keyboard-response,135,354779,0.0-1.0-27.0-0.0-0.0,0,0,61002,,971.0,,,75.0,25.0,25.0,1500.0,2000.0,0.0,1.0,0.0,40-60,,0.0,trumpet,flashlight,40.0,60.0,trumpet4,flashlight2,20.0,60.0,JUPITER+JTR1000S.jpg,AV-9 No Battery Flashlight.jpg,/static/Category_learning/Stimuli/Experimental_stims/trumpet/JUPITER+JTR1000S.jpg,/static/Category_learning/Stimuli/Experimental_stims/flashlight/AV-9 No Battery Flashlight.jpg,0.0,flashlight,trumpet,60.0,40.0,flashlight2,trumpet4,60.0,20.0,0.0,123.971,0.971,,,,,,
136,,confirmation,,html-keyboard-response,136,355313,0.0-1.0-27.0-0.0-1.0-0.0,0,0,61002,,,,,,25.0,,,,,,,,,,,,,,,,,,,,,,,,,,,,,,,,124.5,0.529,,,,,,
137,,isi,,html-keyboard-response,137,356818,0.0-1.0-27.0-0.0-2.0,0,0,61002,,,,,,,,,,,,,,,,,,,,,,,,,,,,,,,,,,,,,,126.0,1.5,,,,,,
138,,feedback,,html-keyboard-response,138,357822,0.0-1.0-27.0-0.0-3.0-0.0,0,0,61002,,,,,,25.0,,,,,,,,,,,,,,,,,,,,,,,,,,,,,,,,127.0,1.0,,,,,,
139,,iti,,html-keyboard-response,139,359827,0.0-1.0-27.0-0.0-5.0,0,0,61002,,,,,,,,,,,,,,,,,,,,,,,,,,,,,,,,,,,,,,129.0,2.0,,,,,,
140,,choice,,html-keyboard-response,140,360619,0.0-1.0-28.0-0.0-0.0,0,0,61002,,787.0,,,75.0,26.0,26.0,1500.0,3000.0,0.0,1.0,0.0,40-60,,0.0,stool,bowl,40.0,60.0,stool9,bowl8,40.0,40.0,ASTOOL7.jpg,ASLVBOWL.jpg,/static/Category_learning/Stimuli/Experimental_stims/stool/ASTOOL7.jpg,/static/Category_learning/Stimuli/Experimental_stims/bowl/ASLVBOWL.jpg,0.0,bowl,stool,60.0,40.0,bowl8,stool9,40.0,40.0,0.0,129.787,0.787,,,,,,
141,,confirmation,,html-keyboard-response,141,361337,0.0-1.0-28.0-0.0-1.0-0.0,0,0,61002,,,,,,26.0,,,,,,,,,,,,,,,,,,,,,,,,,,,,,,,,130.5,0.713,,,,,,
142,,isi,,html-keyboard-response,142,362841,0.0-1.0-28.0-0.0-2.0,0,0,61002,,,,,,,,,,,,,,,,,,,,,,,,,,,,,,,,,,,,,,132.0,1.5,,,,,,
143,,feedback,,html-keyboard-response,143,363845,0.0-1.0-28.0-0.0-3.0-0.0,0,0,61002,,,,,,26.0,,,,,,,,,,,,,,,,,,,,,,,,,,,,,,,,133.0,1.0,,,,,,
144,,iti,,html-keyboard-response,144,366849,0.0-1.0-28.0-0.0-5.0,0,0,61002,,,,,,,,,,,,,,,,,,,,,,,,,,,,,,,,,,,,,,136.0,3.0,,,,,,
145,,choice,,html-keyboard-response,145,367868,0.0-1.0-29.0-0.0-0.0,0,0,61002,,1014.0,,,68.0,27.0,27.0,1000.0,1000.0,0.0,1.0,0.0,80-80,,,key chain,lipstick,80.0,80.0,key chain8,lipstick5,100.0,80.0,Keychain01.jpg,P35719_hero.jpg,/static/Category_learning/Stimuli/Experimental_stims/key chain/Keychain01.jpg,/static/Category_learning/Stimuli/Experimental_stims/lipstick/P35719_hero.jpg,1.0,key chain,lipstick,80.0,80.0,key chain8,lipstick5,100.0,80.0,0.0,137.014,1.014,,,,,,
146,,confirmation,,html-keyboard-response,146,368360,0.0-1.0-29.0-0.0-1.0-0.0,0,0,61002,,,,,,27.0,,,,,,,,,,,,,,,,,,,,,,,,,,,,,,,,137.5,0.486,,,,,,
147,,isi,,html-keyboard-response,147,369364,0.0-1.0-29.0-0.0-2.0,0,0,61002,,,,,,,,,,,,,,,,,,,,,,,,,,,,,,,,,,,,,,138.5,1.0,,,,,,
148,,feedback,,html-keyboard-response,148,370369,0.0-1.0-29.0-0.0-3.0-0.0,0,0,61002,,,,,,27.0,,,,,,,,,,,,,,,,,,,,,,,,,,,,,,,,139.5,1.0,,,,,,
149,,iti,,html-keyboard-response,149,371372,0.0-1.0-29.0-0.0-5.0,0,0,61002,,,,,,,,,,,,,,,,,,,,,,,,,,,,,,,,,,,,,,140.5,1.0,,,,,,
150,,choice,,html-keyboard-response,150,372483,0.0-1.0-30.0-0.0-0.0,0,0,61002,,1106.0,,,75.0,28.0,28.0,3500.0,1500.0,0.0,1.0,0.0,60-60,,,bench,desk,60.0,60.0,bench7,desk5,40.0,80.0,ACONBENCH.jpg,ADESK6.jpg,/static/Category_learning/Stimuli/Experimental_stims/bench/ACONBENCH.jpg,/static/Category_learning/Stimuli/Experimental_stims/desk/ADESK6.jpg,0.0,desk,bench,60.0,60.0,desk5,bench7,80.0,40.0,0.0,141.606,1.106,,,,,,
151,,confirmation,,html-keyboard-response,151,372882,0.0-1.0-30.0-0.0-1.0-0.0,0,0,61002,,,,,,28.0,,,,,,,,,,,,,,,,,,,,,,,,,,,,,,,,142.0,0.394,,,,,,
152,,isi,,html-keyboard-response,152,376386,0.0-1.0-30.0-0.0-2.0,0,0,61002,,,,,,,,,,,,,,,,,,,,,,,,,,,,,,,,,,,,,,145.5,3.5,,,,,,
153,,feedback,,html-keyboard-response,153,377393,0.0-1.0-30.0-0.0-3.0-0.0,0,0,61002,,,,,,28.0,,,,,,,,,,,,,,,,,,,,,,,,,,,,,,,,146.5,1.0,,,,,,
154,,iti,,html-keyboard-response,154,378896,0.0-1.0-30.0-0.0-5.0,0,0,61002,,,,,,,,,,,,,,,,,,,,,,,,,,,,,,,,,,,,,,148.0,1.5,,,,,,
155,,choice,,html-keyboard-response,155,380020,0.0-1.0-31.0-0.0-0.0,0,0,61002,,1118.0,,,75.0,29.0,29.0,2000.0,1000.0,0.0,1.0,1.0,60-60,1.0,,flashlight,flashlight,60.0,60.0,flashlight2,flashlight1,60.0,40.0,AV-9 No Battery Flashlight.jpg,Graphite3D.jpg,/static/Category_learning/Stimuli/Experimental_stims/flashlight/AV-9 No Battery Flashlight.jpg,/static/Category_learning/Stimuli/Experimental_stims/flashlight/Graphite3D.jpg,0.0,flashlight,flashlight,60.0,60.0,flashlight1,flashlight2,40.0,60.0,0.0,149.118,1.118,,,,,,
156,,confirmation,,html-keyboard-response,156,380407,0.0-1.0-31.0-0.0-1.0-0.0,0,0,61002,,,,,,29.0,,,,,,,,,,,,,,,,,,,,,,,,,,,,,,,,149.5,0.382,,,,,,
157,,isi,,html-keyboard-response,157,382411,0.0-1.0-31.0-0.0-2.0,0,0,61002,,,,,,,,,,,,,,,,,,,,,,,,,,,,,,,,,,,,,,151.5,2.0,,,,,,
158,,feedback,,html-keyboard-response,158,383415,0.0-1.0-31.0-0.0-3.0-0.0,0,0,61002,,,,,,29.0,,,,,,,,,,,,,,,,,,,,,,,,,,,,,,,,152.5,1.0,,,,,,
159,,iti,,html-keyboard-response,159,384433,0.0-1.0-31.0-0.0-5.0,0,0,61002,,,,,,,,,,,,,,,,,,,,,,,,,,,,,,,,,,,,,,153.5,1.0,,,,,,
160,,choice,,html-keyboard-response,160,385651,0.0-1.0-32.0-0.0-0.0,0,0,61002,,1214.0,,,75.0,30.0,30.0,2000.0,3500.0,0.0,1.0,0.0,40-60,,0.0,stool,dresser,40.0,60.0,stool10,dresser12,60.0,60.0,ASTOOL26.jpg,ADRESSE58.jpg,/static/Category_learning/Stimuli/Experimental_stims/stool/ASTOOL26.jpg,/static/Category_learning/Stimuli/Experimental_stims/dresser/ADRESSE58.jpg,0.0,dresser,stool,60.0,40.0,dresser12,stool10,60.0,60.0,0.0,154.714,1.214,,,,,,
161,,confirmation,,html-keyboard-response,161,385942,0.0-1.0-32.0-0.0-1.0-0.0,0,0,61002,,,,,,30.0,,,,,,,,,,,,,,,,,,,,,,,,,,,,,,,,155.0,0.286,,,,,,
162,,isi,,html-keyboard-response,162,387946,0.0-1.0-32.0-0.0-2.0,0,0,61002,,,,,,,,,,,,,,,,,,,,,,,,,,,,,,,,,,,,,,157.0,2.0,,,,,,
163,,feedback,,html-keyboard-response,163,388951,0.0-1.0-32.0-0.0-3.0-0.0,0,0,61002,,,,,,30.0,,,,,,,,,,,,,,,,,,,,,,,,,,,,,,,,158.0,1.0,,,,,,
164,,iti,,html-keyboard-response,164,392454,0.0-1.0-32.0-0.0-5.0,0,0,61002,,,,,,,,,,,,,,,,,,,,,,,,,,,,,,,,,,,,,,161.5,3.5,,,,,,
165,,choice,,html-keyboard-response,165,393395,0.0-1.0-33.0-0.0-0.0,0,0,61002,,935.0,,,68.0,31.0,31.0,2000.0,2000.0,0.0,1.0,1.0,60-60,1.0,,bowl,bowl,60.0,60.0,bowl8,bowl14,40.0,60.0,ASLVBOWL.jpg,Aredglassbowl.jpg,/static/Category_learning/Stimuli/Experimental_stims/bowl/ASLVBOWL.jpg,/static/Category_learning/Stimuli/Experimental_stims/bowl/Aredglassbowl.jpg,1.0,bowl,bowl,60.0,60.0,bowl8,bowl14,40.0,60.0,0.0,162.435,0.935,,,,,,
166,,confirmation,,html-keyboard-response,166,393965,0.0-1.0-33.0-0.0-1.0-0.0,0,0,61002,,,,,,31.0,,,,,,,,,,,,,,,,,,,,,,,,,,,,,,,,163.0,0.565,,,,,,
167,,isi,,html-keyboard-response,167,395968,0.0-1.0-33.0-0.0-2.0,0,0,61002,,,,,,,,,,,,,,,,,,,,,,,,,,,,,,,,,,,,,,165.0,2.0,,,,,,
168,,feedback,,html-keyboard-response,168,396972,0.0-1.0-33.0-0.0-3.0-0.0,0,0,61002,,,,,,31.0,,,,,,,,,,,,,,,,,,,,,,,,,,,,,,,,166.0,1.0,,,,,,
169,,iti,,html-keyboard-response,169,398976,0.0-1.0-33.0-0.0-5.0,0,0,61002,,,,,,,,,,,,,,,,,,,,,,,,,,,,,,,,,,,,,,168.0,2.0,,,,,,
170,,choice,,html-keyboard-response,170,399883,0.0-1.0-34.0-0.0-0.0,0,0,61002,,903.0,,,75.0,32.0,32.0,1500.0,2000.0,0.0,1.0,0.0,40-40,,,stool,tape,40.0,40.0,stool8,tape9,60.0,40.0,ASTOOL33.jpg,desk tape disp.jpg,/static/Category_learning/Stimuli/Experimental_stims/stool/ASTOOL33.jpg,/static/Category_learning/Stimuli/Experimental_stims/tape/desk tape disp.jpg,0.0,tape,stool,40.0,40.0,tape9,stool8,40.0,60.0,0.0,168.903,0.903,,,,,,
171,,confirmation,,html-keyboard-response,171,400485,0.0-1.0-34.0-0.0-1.0-0.0,0,0,61002,,,,,,32.0,,,,,,,,,,,,,,,,,,,,,,,,,,,,,,,,169.5,0.597,,,,,,
172,,isi,,html-keyboard-response,172,401988,0.0-1.0-34.0-0.0-2.0,0,0,61002,,,,,,,,,,,,,,,,,,,,,,,,,,,,,,,,,,,,,,171.0,1.5,,,,,,
173,,feedback,,html-keyboard-response,173,402992,0.0-1.0-34.0-0.0-3.0-0.0,0,0,61002,,,,,,32.0,,,,,,,,,,,,,,,,,,,,,,,,,,,,,,,,172.0,1.0,,,,,,
174,,iti,,html-keyboard-response,174,405000,0.0-1.0-34.0-0.0-5.0,0,0,61002,,,,,,,,,,,,,,,,,,,,,,,,,,,,,,,,,,,,,,174.0,2.0,,,,,,
175,,choice,,html-keyboard-response,175,406252,0.0-1.0-35.0-0.0-0.0,0,0,61002,,1246.0,,,75.0,33.0,33.0,1000.0,3000.0,0.0,1.0,0.0,40-40,,,yarn,tent,40.0,40.0,yarn10,tent5,60.0,60.0,revelation-yarn.jpg,Dome Tentnb87r67.jpg,/static/Category_learning/Stimuli/Experimental_stims/yarn/revelation-yarn.jpg,/static/Category_learning/Stimuli/Experimental_stims/tent/Dome Tentnb87r67.jpg,0.0,tent,yarn,40.0,40.0,tent5,yarn10,60.0,60.0,0.0,175.246,1.246,,,,,,
176,,confirmation,,html-keyboard-response,176,406511,0.0-1.0-35.0-0.0-1.0-0.0,0,0,61002,,,,,,33.0,,,,,,,,,,,,,,,,,,,,,,,,,,,,,,,,175.5,0.254,,,,,,
177,,isi,,html-keyboard-response,177,407515,0.0-1.0-35.0-0.0-2.0,0,0,61002,,,,,,,,,,,,,,,,,,,,,,,,,,,,,,,,,,,,,,176.5,1.0,,,,,,
178,,feedback,,html-keyboard-response,178,408520,0.0-1.0-35.0-0.0-3.0-0.0,0,0,61002,,,,,,33.0,,,,,,,,,,,,,,,,,,,,,,,,,,,,,,,,177.5,1.0,,,,,,
179,,iti,,html-keyboard-response,179,411523,0.0-1.0-35.0-0.0-5.0,0,0,61002,,,,,,,,,,,,,,,,,,,,,,,,,,,,,,,,,,,,,,180.5,3.0,,,,,,
180,,choice,,html-keyboard-response,180,412435,0.0-1.0-36.0-0.0-0.0,0,0,61002,,906.0,,,75.0,34.0,34.0,1000.0,1500.0,0.0,1.0,0.0,20-20,,,pen,nail polish,20.0,20.0,pen2,nail polish3,20.0,40.0,Montblanc-Blu-Starwalker-BP copy.jpg,327636.jpg,/static/Category_learning/Stimuli/Experimental_stims/pen/Montblanc-Blu-Starwalker-BP copy.jpg,/static/Category_learning/Stimuli/Experimental_stims/nail polish/327636.jpg,0.0,nail polish,pen,20.0,20.0,nail polish3,pen2,40.0,20.0,0.0,181.406,0.906,,,,,,
181,,confirmation,,html-keyboard-response,181,413033,0.0-1.0-36.0-0.0-1.0-0.0,0,0,61002,,,,,,34.0,,,,,,,,,,,,,,,,,,,,,,,,,,,,,,,,182.0,0.594,,,,,,
182,,isi,,html-keyboard-response,182,414037,0.0-1.0-36.0-0.0-2.0,0,0,61002,,,,,,,,,,,,,,,,,,,,,,,,,,,,,,,,,,,,,,183.0,1.0,,,,,,
183,,feedback,,html-keyboard-response,183,415041,0.0-1.0-36.0-0.0-3.0-0.0,0,0,61002,,,,,,34.0,,,,,,,,,,,,,,,,,,,,,,,,,,,,,,,,184.0,1.0,,,,,,
184,,iti,,html-keyboard-response,184,416546,0.0-1.0-36.0-0.0-5.0,0,0,61002,,,,,,,,,,,,,,,,,,,,,,,,,,,,,,,,,,,,,,185.5,1.5,,,,,,
185,,choice,,html-keyboard-response,185,417516,0.0-1.0-37.0-0.0-0.0,0,0,61002,,965.0,,,75.0,35.0,35.0,1500.0,1000.0,0.0,1.0,0.0,40-60,,0.0,stool,dresser,40.0,60.0,stool2,dresser14,20.0,60.0,ASTOOL46.jpg,Adressertabl3.jpg,/static/Category_learning/Stimuli/Experimental_stims/stool/ASTOOL46.jpg,/static/Category_learning/Stimuli/Experimental_stims/dresser/Adressertabl3.jpg,0.0,dresser,stool,60.0,40.0,dresser14,stool2,60.0,20.0,0.0,186.465,0.965,,,,,,
186,,confirmation,,html-keyboard-response,186,418055,0.0-1.0-37.0-0.0-1.0-0.0,0,0,61002,,,,,,35.0,,,,,,,,,,,,,,,,,,,,,,,,,,,,,,,,187.0,0.535,,,,,,
187,,isi,,html-keyboard-response,187,419560,0.0-1.0-37.0-0.0-2.0,0,0,61002,,,,,,,,,,,,,,,,,,,,,,,,,,,,,,,,,,,,,,188.5,1.5,,,,,,
188,,feedback,,html-keyboard-response,188,420565,0.0-1.0-37.0-0.0-3.0-0.0,0,0,61002,,,,,,35.0,,,,,,,,,,,,,,,,,,,,,,,,,,,,,,,,189.5,1.0,,,,,,
189,,iti,,html-keyboard-response,189,421570,0.0-1.0-37.0-0.0-5.0,0,0,61002,,,,,,,,,,,,,,,,,,,,,,,,,,,,,,,,,,,,,,190.5,1.0,,,,,,
190,,choice,,html-keyboard-response,190,422547,0.0-1.0-38.0-0.0-0.0,0,0,61002,,971.0,,,75.0,36.0,36.0,1500.0,1000.0,0.0,1.0,0.0,20-80,,0.0,necklace,motorcycle,20.0,80.0,necklace2,motorcycle2,20.0,100.0,Anecklace7.jpg,motorcycle33.jpg,/static/Category_learning/Stimuli/Experimental_stims/necklace/Anecklace7.jpg,/static/Category_learning/Stimuli/Experimental_stims/motorcycle/motorcycle33.jpg,0.0,motorcycle,necklace,80.0,20.0,motorcycle2,necklace2,100.0,20.0,0.0,191.471,0.971,,,,,,
191,,confirmation,,html-keyboard-response,191,423080,0.0-1.0-38.0-0.0-1.0-0.0,0,0,61002,,,,,,36.0,,,,,,,,,,,,,,,,,,,,,,,,,,,,,,,,192.0,0.529,,,,,,
192,,isi,,html-keyboard-response,192,424586,0.0-1.0-38.0-0.0-2.0,0,0,61002,,,,,,,,,,,,,,,,,,,,,,,,,,,,,,,,,,,,,,193.5,1.5,,,,,,
193,,feedback,,html-keyboard-response,193,425591,0.0-1.0-38.0-0.0-3.0-0.0,0,0,61002,,,,,,36.0,,,,,,,,,,,,,,,,,,,,,,,,,,,,,,,,194.5,1.0,,,,,,
194,,iti,,html-keyboard-response,194,426596,0.0-1.0-38.0-0.0-5.0,0,0,61002,,,,,,,,,,,,,,,,,,,,,,,,,,,,,,,,,,,,,,195.5,1.0,,,,,,
195,,choice,,html-keyboard-response,195,427580,0.0-1.0-39.0-0.0-0.0,0,0,61002,,978.0,,,68.0,37.0,37.0,1000.0,1000.0,0.0,1.0,1.0,60-60,1.0,,dresser,dresser,60.0,60.0,dresser14,dresser12,60.0,60.0,Adressertabl3.jpg,ADRESSE58.jpg,/static/Category_learning/Stimuli/Experimental_stims/dresser/Adressertabl3.jpg,/static/Category_learning/Stimuli/Experimental_stims/dresser/ADRESSE58.jpg,1.0,dresser,dresser,60.0,60.0,dresser14,dresser12,60.0,60.0,0.0,196.478,0.978,,,,,,
196,,confirmation,,html-keyboard-response,196,428106,0.0-1.0-39.0-0.0-1.0-0.0,0,0,61002,,,,,,37.0,,,,,,,,,,,,,,,,,,,,,,,,,,,,,,,,197.0,0.522,,,,,,
197,,isi,,html-keyboard-response,197,429111,0.0-1.0-39.0-0.0-2.0,0,0,61002,,,,,,,,,,,,,,,,,,,,,,,,,,,,,,,,,,,,,,198.0,1.0,,,,,,
198,,feedback,,html-keyboard-response,198,430116,0.0-1.0-39.0-0.0-3.0-0.0,0,0,61002,,,,,,37.0,,,,,,,,,,,,,,,,,,,,,,,,,,,,,,,,199.0,1.0,,,,,,
199,,iti,,html-keyboard-response,199,431120,0.0-1.0-39.0-0.0-5.0,0,0,61002,,,,,,,,,,,,,,,,,,,,,,,,,,,,,,,,,,,,,,200.0,1.0,,,,,,
200,,choice,,html-keyboard-response,200,431955,0.0-1.0-40.0-0.0-0.0,0,0,61002,,830.0,,,75.0,38.0,38.0,3000.0,1000.0,0.0,1.0,0.0,20-60,,0.0,sofa,bongo,20.0,60.0,sofa9,bongo12,20.0,40.0,ALOVSEAT9.jpg,26686609.thl.jpg,/static/Category_learning/Stimuli/Experimental_stims/sofa/ALOVSEAT9.jpg,/static/Category_learning/Stimuli/Experimental_stims/bongo/26686609.thl.jpg,0.0,bongo,sofa,60.0,20.0,bongo12,sofa9,40.0,20.0,0.0,200.83,0.83,,,,,,
201,,confirmation,,html-keyboard-response,201,432637,0.0-1.0-40.0-0.0-1.0-0.0,0,0,61002,,,,,,38.0,,,,,,,,,,,,,,,,,,,,,,,,,,,,,,,,201.5,0.67,,,,,,
202,,isi,,html-keyboard-response,202,435642,0.0-1.0-40.0-0.0-2.0,0,0,61002,,,,,,,,,,,,,,,,,,,,,,,,,,,,,,,,,,,,,,204.5,3.0,,,,,,
203,,feedback,,html-keyboard-response,203,436647,0.0-1.0-40.0-0.0-3.0-0.0,0,0,61002,,,,,,38.0,,,,,,,,,,,,,,,,,,,,,,,,,,,,,,,,205.5,1.0,,,,,,
204,,iti,,html-keyboard-response,204,437651,0.0-1.0-40.0-0.0-5.0,0,0,61002,,,,,,,,,,,,,,,,,,,,,,,,,,,,,,,,,,,,,,206.5,1.0,,,,,,
205,,choice,,html-keyboard-response,205,438515,0.0-1.0-41.0-0.0-0.0,0,0,61002,,860.0,,,68.0,39.0,39.0,3000.0,3000.0,0.0,1.0,0.0,20-20,,,patio lounge chair,seashell,20.0,20.0,patio lounge chair14,seashell13,40.0,0.0,2987951.jpg,coquillage22.jpg,/static/Category_learning/Stimuli/Experimental_stims/patio lounge chair/2987951.jpg,/static/Category_learning/Stimuli/Experimental_stims/seashell/coquillage22.jpg,1.0,patio lounge chair,seashell,20.0,20.0,patio lounge chair14,seashell13,40.0,0.0,0.0,207.36,0.86,,,,,,
206,,confirmation,,html-keyboard-response,206,439160,0.0-1.0-41.0-0.0-1.0-0.0,0,0,61002,,,,,,39.0,,,,,,,,,,,,,,,,,,,,,,,,,,,,,,,,208.0,0.64,,,,,,
207,,isi,,html-keyboard-response,207,442164,0.0-1.0-41.0-0.0-2.0,0,0,61002,,,,,,,,,,,,,,,,,,,,,,,,,,,,,,,,,,,,,,211.0,3.0,,,,,,
208,,feedback,,html-keyboard-response,208,443168,0.0-1.0-41.0-0.0-3.0-0.0,0,0,61002,,,,,,39.0,,,,,,,,,,,,,,,,,,,,,,,,,,,,,,,,212.0,1.0,,,,,,
209,,iti,,html-keyboard-response,209,446172,0.0-1.0-41.0-0.0-5.0,0,0,61002,,,,,,,,,,,,,,,,,,,,,,,,,,,,,,,,,,,,,,215.0,3.0,,,,,,
210,,choice,,html-keyboard-response,210,447003,0.0-1.0-42.0-0.0-0.0,0,0,61002,,826.0,,,75.0,40.0,40.0,2000.0,2000.0,0.0,1.0,0.0,60-80,,1.0,makeup compact,flashlight,80.0,60.0,makeup compact9,flashlight10,100.0,80.0,b_102019.jpg,834784_sk_lg.jpg,/static/Category_learning/Stimuli/Experimental_stims/makeup compact/b_102019.jpg,/static/Category_learning/Stimuli/Experimental_stims/flashlight/834784_sk_lg.jpg,0.0,flashlight,makeup compact,60.0,80.0,flashlight10,makeup compact9,80.0,100.0,0.0,215.826,0.826,,,,,,
211,,confirmation,,html-keyboard-response,211,447682,0.0-1.0-42.0-0.0-1.0-0.0,0,0,61002,,,,,,40.0,,,,,,,,,,,,,,,,,,,,,,,,,,,,,,,,216.5,0.674,,,,,,
212,,isi,,html-keyboard-response,212,449685,0.0-1.0-42.0-0.0-2.0,0,0,61002,,,,,,,,,,,,,,,,,,,,,,,,,,,,,,,,,,,,,,218.5,2.0,,,,,,
213,,feedback,,html-keyboard-response,213,450690,0.0-1.0-42.0-0.0-3.0-0.0,0,0,61002,,,,,,40.0,,,,,,,,,,,,,,,,,,,,,,,,,,,,,,,,219.5,1.0,,,,,,
214,,iti,,html-keyboard-response,214,452694,0.0-1.0-42.0-0.0-5.0,0,0,61002,,,,,,,,,,,,,,,,,,,,,,,,,,,,,,,,,,,,,,221.5,2.0,,,,,,
215,,choice,,html-keyboard-response,215,453628,0.0-1.0-43.0-0.0-0.0,0,0,61002,,928.0,,,68.0,41.0,41.0,2000.0,1000.0,0.0,1.0,1.0,20-20,1.0,,patio lounge chair,patio lounge chair,20.0,20.0,patio lounge chair14,patio lounge chair9,40.0,20.0,2987951.jpg,43-3.jpg,/static/Category_learning/Stimuli/Experimental_stims/patio lounge chair/2987951.jpg,/static/Category_learning/Stimuli/Experimental_stims/patio lounge chair/43-3.jpg,1.0,patio lounge chair,patio lounge chair,20.0,20.0,patio lounge chair14,patio lounge chair9,40.0,20.0,0.0,222.428,0.928,,,,,,
216,,confirmation,,html-keyboard-response,216,454208,0.0-1.0-43.0-0.0-1.0-0.0,0,0,61002,,,,,,41.0,,,,,,,,,,,,,,,,,,,,,,,,,,,,,,,,223.0,0.572,,,,,,
217,,isi,,html-keyboard-response,217,456212,0.0-1.0-43.0-0.0-2.0,0,0,61002,,,,,,,,,,,,,,,,,,,,,,,,,,,,,,,,,,,,,,225.0,2.0,,,,,,
218,,feedback,,html-keyboard-response,218,457217,0.0-1.0-43.0-0.0-3.0-0.0,0,0,61002,,,,,,41.0,,,,,,,,,,,,,,,,,,,,,,,,,,,,,,,,226.0,1.0,,,,,,
219,,iti,,html-keyboard-response,219,458221,0.0-1.0-43.0-0.0-5.0,0,0,61002,,,,,,,,,,,,,,,,,,,,,,,,,,,,,,,,,,,,,,227.0,1.0,,,,,,
220,,choice,,html-keyboard-response,220,459181,0.0-1.0-44.0-0.0-0.0,0,0,61002,,954.0,,,75.0,42.0,42.0,1000.0,1500.0,0.0,1.0,0.0,40-80,,1.0,makeup compact,trumpet,80.0,40.0,makeup compact6,trumpet13,80.0,40.0,P0754_hero.jpg,JUPITER+JTR1600GS.jpg,/static/Category_learning/Stimuli/Experimental_stims/makeup compact/P0754_hero.jpg,/static/Category_learning/Stimuli/Experimental_stims/trumpet/JUPITER+JTR1600GS.jpg,0.0,trumpet,makeup compact,40.0,80.0,trumpet13,makeup compact6,40.0,80.0,0.0,227.954,0.954,,,,,,
221,,confirmation,,html-keyboard-response,221,459731,0.0-1.0-44.0-0.0-1.0-0.0,0,0,61002,,,,,,42.0,,,,,,,,,,,,,,,,,,,,,,,,,,,,,,,,228.5,0.546,,,,,,
222,,isi,,html-keyboard-response,222,460734,0.0-1.0-44.0-0.0-2.0,0,0,61002,,,,,,,,,,,,,,,,,,,,,,,,,,,,,,,,,,,,,,229.5,1.0,,,,,,
223,,feedback,,html-keyboard-response,223,461740,0.0-1.0-44.0-0.0-3.0-0.0,0,0,61002,,,,,,42.0,,,,,,,,,,,,,,,,,,,,,,,,,,,,,,,,230.5,1.0,,,,,,
224,,iti,,html-keyboard-response,224,463244,0.0-1.0-44.0-0.0-5.0,0,0,61002,,,,,,,,,,,,,,,,,,,,,,,,,,,,,,,,,,,,,,232.0,1.5,,,,,,
225,,choice,,html-keyboard-response,225,464148,0.0-1.0-45.0-0.0-0.0,0,0,61002,,899.0,,,75.0,43.0,43.0,1000.0,2000.0,0.0,1.0,0.0,80-80,,,hat,makeup compact,80.0,80.0,hat2,makeup compact10,100.0,60.0,Ahatwithfeat7.jpg,P95108_hero.jpg,/static/Category_learning/Stimuli/Experimental_stims/hat/Ahatwithfeat7.jpg,/static/Category_learning/Stimuli/Experimental_stims/makeup compact/P95108_hero.jpg,0.0,makeup compact,hat,80.0,80.0,makeup compact10,hat2,60.0,100.0,0.0,232.899,0.899,,,,,,
226,,confirmation,,html-keyboard-response,226,464754,0.0-1.0-45.0-0.0-1.0-0.0,0,0,61002,,,,,,43.0,,,,,,,,,,,,,,,,,,,,,,,,,,,,,,,,233.5,0.601,,,,,,
227,,isi,,html-keyboard-response,227,465758,0.0-1.0-45.0-0.0-2.0,0,0,61002,,,,,,,,,,,,,,,,,,,,,,,,,,,,,,,,,,,,,,234.5,1.0,,,,,,
228,,feedback,,html-keyboard-response,228,466763,0.0-1.0-45.0-0.0-3.0-0.0,0,0,61002,,,,,,43.0,,,,,,,,,,,,,,,,,,,,,,,,,,,,,,,,235.5,1.0,,,,,,
229,,iti,,html-keyboard-response,229,468766,0.0-1.0-45.0-0.0-5.0,0,0,61002,,,,,,,,,,,,,,,,,,,,,,,,,,,,,,,,,,,,,,237.5,2.0,,,,,,
230,,choice,,html-keyboard-response,230,469699,0.0-1.0-46.0-0.0-0.0,0,0,61002,,928.0,,,68.0,44.0,44.0,1500.0,1500.0,0.0,1.0,0.0,40-60,,1.0,fan,tent,60.0,40.0,fan1,tent4,80.0,40.0,01393.fpx.jpg,Atent12.jpg,/static/Category_learning/Stimuli/Experimental_stims/fan/01393.fpx.jpg,/static/Category_learning/Stimuli/Experimental_stims/tent/Atent12.jpg,1.0,fan,tent,60.0,40.0,fan1,tent4,80.0,40.0,0.0,238.428,0.928,,,,,,
231,,confirmation,,html-keyboard-response,231,470278,0.0-1.0-46.0-0.0-1.0-0.0,0,0,61002,,,,,,44.0,,,,,,,,,,,,,,,,,,,,,,,,,,,,,,,,239.0,0.572,,,,,,
232,,isi,,html-keyboard-response,232,471782,0.0-1.0-46.0-0.0-2.0,0,0,61002,,,,,,,,,,,,,,,,,,,,,,,,,,,,,,,,,,,,,,240.5,1.5,,,,,,
233,,feedback,,html-keyboard-response,233,472787,0.0-1.0-46.0-0.0-3.0-0.0,0,0,61002,,,,,,44.0,,,,,,,,,,,,,,,,,,,,,,,,,,,,,,,,241.5,1.0,,,,,,
234,,iti,,html-keyboard-response,234,474291,0.0-1.0-46.0-0.0-5.0,0,0,61002,,,,,,,,,,,,,,,,,,,,,,,,,,,,,,,,,,,,,,243.0,1.5,,,,,,
235,,choice,,html-keyboard-response,235,475292,0.0-1.0-47.0-0.0-0.0,0,0,61002,,995.0,,,68.0,45.0,45.0,2000.0,3500.0,0.0,1.0,1.0,40-40,1.0,,trumpet,trumpet,40.0,40.0,trumpet11,trumpet13,20.0,40.0,JUPITER+JTR604L.jpg,JUPITER+JTR1600GS.jpg,/static/Category_learning/Stimuli/Experimental_stims/trumpet/JUPITER+JTR604L.jpg,/static/Category_learning/Stimuli/Experimental_stims/trumpet/JUPITER+JTR1600GS.jpg,1.0,trumpet,trumpet,40.0,40.0,trumpet11,trumpet13,20.0,40.0,0.0,243.995,0.995,,,,,,
236,,confirmation,,html-keyboard-response,236,475802,0.0-1.0-47.0-0.0-1.0-0.0,0,0,61002,,,,,,45.0,,,,,,,,,,,,,,,,,,,,,,,,,,,,,,,,244.5,0.505,,,,,,
237,,isi,,html-keyboard-response,237,477806,0.0-1.0-47.0-0.0-2.0,0,0,61002,,,,,,,,,,,,,,,,,,,,,,,,,,,,,,,,,,,,,,246.5,2.0,,,,,,
238,,feedback,,html-keyboard-response,238,478811,0.0-1.0-47.0-0.0-3.0-0.0,0,0,61002,,,,,,45.0,,,,,,,,,,,,,,,,,,,,,,,,,,,,,,,,247.5,1.0,,,,,,
239,,iti,,html-keyboard-response,239,482316,0.0-1.0-47.0-0.0-5.0,0,0,61002,,,,,,,,,,,,,,,,,,,,,,,,,,,,,,,,,,,,,,251.0,3.5,,,,,,
240,,choice,,html-keyboard-response,240,483483,0.0-1.0-48.0-0.0-0.0,0,0,61002,,1162.0,,,68.0,46.0,46.0,2000.0,1500.0,0.0,1.0,0.0,40-80,,0.0,yarn,lipstick,40.0,80.0,yarn8,lipstick9,60.0,100.0,smonlineyarn-285x250.jpg,P189145_hero.jpg,/static/Category_learning/Stimuli/Experimental_stims/yarn/smonlineyarn-285x250.jpg,/static/Category_learning/Stimuli/Experimental_stims/lipstick/P189145_hero.jpg,1.0,yarn,lipstick,40.0,80.0,yarn8,lipstick9,60.0,100.0,0.0,252.162,1.162,,,,,,
241,,confirmation,,html-keyboard-response,241,483825,0.0-1.0-48.0-0.0-1.0-0.0,0,0,61002,,,,,,46.0,,,,,,,,,,,,,,,,,,,,,,,,,,,,,,,,252.5,0.338,,,,,,
242,,isi,,html-keyboard-response,242,485829,0.0-1.0-48.0-0.0-2.0,0,0,61002,,,,,,,,,,,,,,,,,,,,,,,,,,,,,,,,,,,,,,254.5,2.0,,,,,,
243,,feedback,,html-keyboard-response,243,486834,0.0-1.0-48.0-0.0-3.0-0.0,0,0,61002,,,,,,46.0,,,,,,,,,,,,,,,,,,,,,,,,,,,,,,,,255.5,1.0,,,,,,
244,,iti,,html-keyboard-response,244,488338,0.0-1.0-48.0-0.0-5.0,0,0,61002,,,,,,,,,,,,,,,,,,,,,,,,,,,,,,,,,,,,,,257.0,1.5,,,,,,
245,,choice,,html-keyboard-response,245,489140,0.0-1.0-49.0-0.0-0.0,0,0,61002,,796.0,,,68.0,47.0,47.0,1000.0,1000.0,0.0,1.0,1.0,40-80,0.0,,hammer,tape,80.0,40.0,hammer8,tape9,80.0,40.0,ct1006_hammer.jpg,desk tape disp.jpg,/static/Category_learning/Stimuli/Experimental_stims/hammer/ct1006_hammer.jpg,/static/Category_learning/Stimuli/Experimental_stims/tape/desk tape disp.jpg,1.0,hammer,tape,80.0,40.0,hammer8,tape9,80.0,40.0,0.0,257.796,0.796,,,,,,
246,,confirmation,,html-keyboard-response,246,489849,0.0-1.0-49.0-0.0-1.0-0.0,0,0,61002,,,,,,47.0,,,,,,,,,,,,,,,,,,,,,,,,,,,,,,,,258.5,0.704,,,,,,
247,,isi,,html-keyboard-response,247,490854,0.0-1.0-49.0-0.0-2.0,0,0,61002,,,,,,,,,,,,,,,,,,,,,,,,,,,,,,,,,,,,,,259.5,1.0,,,,,,
248,,feedback,,html-keyboard-response,248,491859,0.0-1.0-49.0-0.0-3.0-0.0,0,0,61002,,,,,,47.0,,,,,,,,,,,,,,,,,,,,,,,,,,,,,,,,260.5,1.0,,,,,,
249,,iti,,html-keyboard-response,249,492863,0.0-1.0-49.0-0.0-5.0,0,0,61002,,,,,,,,,,,,,,,,,,,,,,,,,,,,,,,,,,,,,,261.5,1.0,,,,,,
250,,choice,,html-keyboard-response,250,494060,0.0-1.0-50.0-0.0-0.0,0,0,61002,,1191.0,,,75.0,48.0,48.0,1500.0,1000.0,0.0,1.0,0.0,40-60,,0.0,train,flashlight,40.0,60.0,train8,flashlight12,40.0,60.0,PL51190.jpg,new05.jpg,/static/Category_learning/Stimuli/Experimental_stims/train/PL51190.jpg,/static/Category_learning/Stimuli/Experimental_stims/flashlight/new05.jpg,0.0,flashlight,train,60.0,40.0,flashlight12,train8,60.0,40.0,0.0,262.691,1.191,,,,,,
251,,confirmation,,html-keyboard-response,251,494374,0.0-1.0-50.0-0.0-1.0-0.0,0,0,61002,,,,,,48.0,,,,,,,,,,,,,,,,,,,,,,,,,,,,,,,,263.0,0.309,,,,,,
252,,isi,,html-keyboard-response,252,495878,0.0-1.0-50.0-0.0-2.0,0,0,61002,,,,,,,,,,,,,,,,,,,,,,,,,,,,,,,,,,,,,,264.5,1.5,,,,,,
253,,feedback,,html-keyboard-response,253,496883,0.0-1.0-50.0-0.0-3.0-0.0,0,0,61002,,,,,,48.0,,,,,,,,,,,,,,,,,,,,,,,,,,,,,,,,265.5,1.0,,,,,,
254,,iti,,html-keyboard-response,254,497887,0.0-1.0-50.0-0.0-5.0,0,0,61002,,,,,,,,,,,,,,,,,,,,,,,,,,,,,,,,,,,,,,266.5,1.0,,,,,,
255,,choice,,html-keyboard-response,255,499147,0.0-1.0-51.0-0.0-0.0,0,0,61002,,1255.0,,,68.0,49.0,49.0,1000.0,1000.0,0.0,1.0,1.0,60-60,1.0,,flashlight,flashlight,60.0,60.0,flashlight12,flashlight10,60.0,80.0,new05.jpg,834784_sk_lg.jpg,/static/Category_learning/Stimuli/Experimental_stims/flashlight/new05.jpg,/static/Category_learning/Stimuli/Experimental_stims/flashlight/834784_sk_lg.jpg,1.0,flashlight,flashlight,60.0,60.0,flashlight12,flashlight10,60.0,80.0,0.0,267.755,1.255,,,,,,
256,,confirmation,,html-keyboard-response,256,499399,0.0-1.0-51.0-0.0-1.0-0.0,0,0,61002,,,,,,49.0,,,,,,,,,,,,,,,,,,,,,,,,,,,,,,,,268.0,0.245,,,,,,
257,,isi,,html-keyboard-response,257,500404,0.0-1.0-51.0-0.0-2.0,0,0,61002,,,,,,,,,,,,,,,,,,,,,,,,,,,,,,,,,,,,,,269.0,1.0,,,,,,
258,,feedback,,html-keyboard-response,258,501409,0.0-1.0-51.0-0.0-3.0-0.0,0,0,61002,,,,,,49.0,,,,,,,,,,,,,,,,,,,,,,,,,,,,,,,,270.0,1.0,,,,,,
259,,iti,,html-keyboard-response,259,502413,0.0-1.0-51.0-0.0-5.0,0,0,61002,,,,,,,,,,,,,,,,,,,,,,,,,,,,,,,,,,,,,,271.0,1.0,,,,,,
260,,choice,,html-keyboard-response,260,503308,0.0-1.0-52.0-0.0-0.0,0,0,61002,,890.0,,,75.0,50.0,50.0,1000.0,2000.0,0.0,1.0,0.0,20-80,,1.0,lipstick,sofa,80.0,20.0,lipstick13,sofa8,60.0,20.0,P184708_hero.jpg,allegro-leather-sofa-med2.jpg,/static/Category_learning/Stimuli/Experimental_stims/lipstick/P184708_hero.jpg,/static/Category_learning/Stimuli/Experimental_stims/sofa/allegro-leather-sofa-med2.jpg,0.0,sofa,lipstick,20.0,80.0,sofa8,lipstick13,20.0,60.0,0.0,271.89,0.89,,,,,,
261,,confirmation,,html-keyboard-response,261,503937,0.0-1.0-52.0-0.0-1.0-0.0,0,0,61002,,,,,,50.0,,,,,,,,,,,,,,,,,,,,,,,,,,,,,,,,272.5,0.61,,,,,,
262,,isi,,html-keyboard-response,262,504949,0.0-1.0-52.0-0.0-2.0,0,0,61002,,,,,,,,,,,,,,,,,,,,,,,,,,,,,,,,,,,,,,273.5,1.0,,,,,,
263,,feedback,,html-keyboard-response,263,505953,0.0-1.0-52.0-0.0-3.0-0.0,0,0,61002,,,,,,50.0,,,,,,,,,,,,,,,,,,,,,,,,,,,,,,,,274.5,1.0,,,,,,
264,,iti,,html-keyboard-response,264,507959,0.0-1.0-52.0-0.0-5.0,0,0,61002,,,,,,,,,,,,,,,,,,,,,,,,,,,,,,,,,,,,,,276.5,2.0,,,,,,
265,,choice,,html-keyboard-response,265,508924,0.0-1.0-53.0-0.0-0.0,0,0,61002,,959.0,,,68.0,51.0,51.0,1000.0,2000.0,0.0,1.0,0.0,40-60,,0.0,stool,baby carriage,40.0,60.0,stool5,baby carriage11,40.0,80.0,ASTOOL23.jpg,Baby_Carriage-2.jpg,/static/Category_learning/Stimuli/Experimental_stims/stool/ASTOOL23.jpg,/static/Category_learning/Stimuli/Experimental_stims/baby carriage/Baby_Carriage-2.jpg,1.0,stool,baby carriage,40.0,60.0,stool5,baby carriage11,40.0,80.0,0.0,277.459,0.959,,,,,,
266,,confirmation,,html-keyboard-response,266,509470,0.0-1.0-53.0-0.0-1.0-0.0,0,0,61002,,,,,,51.0,,,,,,,,,,,,,,,,,,,,,,,,,,,,,,,,278.0,0.541,,,,,,
267,,isi,,html-keyboard-response,267,510474,0.0-1.0-53.0-0.0-2.0,0,0,61002,,,,,,,,,,,,,,,,,,,,,,,,,,,,,,,,,,,,,,279.0,1.0,,,,,,
268,,feedback,,html-keyboard-response,268,511478,0.0-1.0-53.0-0.0-3.0-0.0,0,0,61002,,,,,,51.0,,,,,,,,,,,,,,,,,,,,,,,,,,,,,,,,280.0,1.0,,,,,,
269,,iti,,html-keyboard-response,269,513483,0.0-1.0-53.0-0.0-5.0,0,0,61002,,,,,,,,,,,,,,,,,,,,,,,,,,,,,,,,,,,,,,282.0,2.0,,,,,,
270,,choice,,html-keyboard-response,270,514276,0.0-1.0-54.0-0.0-0.0,0,0,61002,,788.0,,,68.0,52.0,52.0,1000.0,2000.0,0.0,1.0,0.0,40-40,,,telescope,vase,40.0,40.0,telescope10,vase4,20.0,60.0,digimarc.ms02.jpg,Avase111.jpg,/static/Category_learning/Stimuli/Experimental_stims/telescope/digimarc.ms02.jpg,/static/Category_learning/Stimuli/Experimental_stims/vase/Avase111.jpg,1.0,telescope,vase,40.0,40.0,telescope10,vase4,20.0,60.0,0.0,282.788,0.788,,,,,,
271,,confirmation,,html-keyboard-response,271,514994,0.0-1.0-54.0-0.0-1.0-0.0,0,0,61002,,,,,,52.0,,,,,,,,,,,,,,,,,,,,,,,,,,,,,,,,283.5,0.712,,,,,,
272,,isi,,html-keyboard-response,272,515998,0.0-1.0-54.0-0.0-2.0,0,0,61002,,,,,,,,,,,,,,,,,,,,,,,,,,,,,,,,,,,,,,284.5,1.0,,,,,,
273,,feedback,,html-keyboard-response,273,517003,0.0-1.0-54.0-0.0-3.0-0.0,0,0,61002,,,,,,52.0,,,,,,,,,,,,,,,,,,,,,,,,,,,,,,,,285.5,1.0,,,,,,
274,,iti,,html-keyboard-response,274,519008,0.0-1.0-54.0-0.0-5.0,0,0,61002,,,,,,,,,,,,,,,,,,,,,,,,,,,,,,,,,,,,,,287.5,2.0,,,,,,
275,,choice,,html-keyboard-response,275,519964,0.0-1.0-55.0-0.0-0.0,0,0,61002,,950.0,,,68.0,53.0,53.0,1000.0,1500.0,0.0,1.0,1.0,20-40,0.0,,stool,seashell,40.0,20.0,stool5,seashell7,40.0,20.0,ASTOOL23.jpg,seashell34.jpg,/static/Category_learning/Stimuli/Experimental_stims/stool/ASTOOL23.jpg,/static/Category_learning/Stimuli/Experimental_stims/seashell/seashell34.jpg,1.0,stool,seashell,40.0,20.0,stool5,seashell7,40.0,20.0,0.0,288.45,0.95,,,,,,
276,,confirmation,,html-keyboard-response,276,520520,0.0-1.0-55.0-0.0-1.0-0.0,0,0,61002,,,,,,53.0,,,,,,,,,,,,,,,,,,,,,,,,,,,,,,,,289.0,0.55,,,,,,
277,,isi,,html-keyboard-response,277,521525,0.0-1.0-55.0-0.0-2.0,0,0,61002,,,,,,,,,,,,,,,,,,,,,,,,,,,,,,,,,,,,,,290.0,1.0,,,,,,
278,,feedback,,html-keyboard-response,278,522530,0.0-1.0-55.0-0.0-3.0-0.0,0,0,61002,,,,,,53.0,,,,,,,,,,,,,,,,,,,,,,,,,,,,,,,,291.0,1.0,,,,,,
279,,iti,,html-keyboard-response,279,524035,0.0-1.0-55.0-0.0-5.0,0,0,61002,,,,,,,,,,,,,,,,,,,,,,,,,,,,,,,,,,,,,,292.5,1.5,,,,,,
280,,choice,,html-keyboard-response,280,524820,0.0-1.0-56.0-0.0-0.0,0,0,61002,,779.0,,,75.0,54.0,54.0,2000.0,1500.0,0.0,1.0,0.0,20-80,,1.0,hat,nail polish,80.0,20.0,hat3,nail polish14,100.0,40.0,Astrawhat49.jpg,38031405.JPG,/static/Category_learning/Stimuli/Experimental_stims/hat/Astrawhat49.jpg,/static/Category_learning/Stimuli/Experimental_stims/nail polish/38031405.JPG,0.0,nail polish,hat,20.0,80.0,nail polish14,hat3,40.0,100.0,0.0,293.279,0.779,,,,,,
281,,confirmation,,html-keyboard-response,281,525546,0.0-1.0-56.0-0.0-1.0-0.0,0,0,61002,,,,,,54.0,,,,,,,,,,,,,,,,,,,,,,,,,,,,,,,,294.0,0.721,,,,,,
282,,isi,,html-keyboard-response,282,527550,0.0-1.0-56.0-0.0-2.0,0,0,61002,,,,,,,,,,,,,,,,,,,,,,,,,,,,,,,,,,,,,,296.0,2.0,,,,,,
283,,feedback,,html-keyboard-response,283,528555,0.0-1.0-56.0-0.0-3.0-0.0,0,0,61002,,,,,,54.0,,,,,,,,,,,,,,,,,,,,,,,,,,,,,,,,297.0,1.0,,,,,,
284,,iti,,html-keyboard-response,284,530061,0.0-1.0-56.0-0.0-5.0,0,0,61002,,,,,,,,,,,,,,,,,,,,,,,,,,,,,,,,,,,,,,298.5,1.5,,,,,,
285,,choice,,html-keyboard-response,285,531107,0.0-1.0-57.0-0.0-0.0,0,0,61002,,1042.0,,,75.0,55.0,55.0,3000.0,1000.0,0.0,1.0,0.0,20-60,,0.0,necklace,bench,20.0,60.0,necklace6,bench4,0.0,40.0,Agoldnecklace.jpg,30892819.thl.jpg,/static/Category_learning/Stimuli/Experimental_stims/necklace/Agoldnecklace.jpg,/static/Category_learning/Stimuli/Experimental_stims/bench/30892819.thl.jpg,0.0,bench,necklace,60.0,20.0,bench4,necklace6,40.0,0.0,0.0,299.542,1.042,,,,,,
286,,confirmation,,html-keyboard-response,286,531570,0.0-1.0-57.0-0.0-1.0-0.0,0,0,61002,,,,,,55.0,,,,,,,,,,,,,,,,,,,,,,,,,,,,,,,,300.0,0.458,,,,,,
287,,isi,,html-keyboard-response,287,534574,0.0-1.0-57.0-0.0-2.0,0,0,61002,,,,,,,,,,,,,,,,,,,,,,,,,,,,,,,,,,,,,,303.0,3.0,,,,,,
288,,feedback,,html-keyboard-response,288,535578,0.0-1.0-57.0-0.0-3.0-0.0,0,0,61002,,,,,,55.0,,,,,,,,,,,,,,,,,,,,,,,,,,,,,,,,304.0,1.0,,,,,,
289,,iti,,html-keyboard-response,289,536583,0.0-1.0-57.0-0.0-5.0,0,0,61002,,,,,,,,,,,,,,,,,,,,,,,,,,,,,,,,,,,,,,305.0,1.0,,,,,,
290,,choice,,html-keyboard-response,290,537427,0.0-1.0-58.0-0.0-0.0,0,0,61002,,839.0,,,75.0,56.0,56.0,1000.0,1500.0,0.0,1.0,0.0,20-80,,1.0,key chain,sofa,80.0,20.0,key chain1,sofa13,80.0,40.0,jm05s16.jpg,ACOUCH25.jpg,/static/Category_learning/Stimuli/Experimental_stims/key chain/jm05s16.jpg,/static/Category_learning/Stimuli/Experimental_stims/sofa/ACOUCH25.jpg,0.0,sofa,key chain,20.0,80.0,sofa13,key chain1,40.0,80.0,0.0,305.839,0.839,,,,,,
291,,confirmation,,html-keyboard-response,291,538095,0.0-1.0-58.0-0.0-1.0-0.0,0,0,61002,,,,,,56.0,,,,,,,,,,,,,,,,,,,,,,,,,,,,,,,,306.5,0.661,,,,,,
292,,isi,,html-keyboard-response,292,539110,0.0-1.0-58.0-0.0-2.0,0,0,61002,,,,,,,,,,,,,,,,,,,,,,,,,,,,,,,,,,,,,,307.5,1.0,,,,,,
293,,feedback,,html-keyboard-response,293,540115,0.0-1.0-58.0-0.0-3.0-0.0,0,0,61002,,,,,,56.0,,,,,,,,,,,,,,,,,,,,,,,,,,,,,,,,308.5,1.0,,,,,,
294,,iti,,html-keyboard-response,294,541620,0.0-1.0-58.0-0.0-5.0,0,0,61002,,,,,,,,,,,,,,,,,,,,,,,,,,,,,,,,,,,,,,310.0,1.5,,,,,,
295,,choice,,html-keyboard-response,295,542532,0.0-1.0-59.0-0.0-0.0,0,0,61002,,905.0,,,68.0,57.0,57.0,1500.0,1000.0,0.0,1.0,1.0,20-20,1.0,,nail polish,nail polish,20.0,20.0,nail polish14,nail polish3,40.0,40.0,38031405.JPG,327636.jpg,/static/Category_learning/Stimuli/Experimental_stims/nail polish/38031405.JPG,/static/Category_learning/Stimuli/Experimental_stims/nail polish/327636.jpg,1.0,nail polish,nail polish,20.0,20.0,nail polish14,nail polish3,40.0,40.0,0.0,310.905,0.905,,,,,,
296,,confirmation,,html-keyboard-response,296,543131,0.0-1.0-59.0-0.0-1.0-0.0,0,0,61002,,,,,,57.0,,,,,,,,,,,,,,,,,,,,,,,,,,,,,,,,311.5,0.595,,,,,,
297,,isi,,html-keyboard-response,297,544635,0.0-1.0-59.0-0.0-2.0,0,0,61002,,,,,,,,,,,,,,,,,,,,,,,,,,,,,,,,,,,,,,313.0,1.5,,,,,,
298,,feedback,,html-keyboard-response,298,545640,0.0-1.0-59.0-0.0-3.0-0.0,0,0,61002,,,,,,57.0,,,,,,,,,,,,,,,,,,,,,,,,,,,,,,,,314.0,1.0,,,,,,
299,,iti,,html-keyboard-response,299,546648,0.0-1.0-59.0-0.0-5.0,0,0,61002,,,,,,,,,,,,,,,,,,,,,,,,,,,,,,,,,,,,,,315.0,1.0,,,,,,
300,,choice,,html-keyboard-response,300,547356,0.0-1.0-60.0-0.0-0.0,0,0,61002,,702.0,,,68.0,58.0,58.0,3000.0,1000.0,0.0,1.0,0.0,40-80,,0.0,tent,hat,40.0,80.0,tent14,hat14,20.0,60.0,inflatable-tent.jpg,Ahat136.jpg,/static/Category_learning/Stimuli/Experimental_stims/tent/inflatable-tent.jpg,/static/Category_learning/Stimuli/Experimental_stims/hat/Ahat136.jpg,1.0,tent,hat,40.0,80.0,tent14,hat14,20.0,60.0,0.0,315.702,0.702,,,,,,
301,,confirmation,,html-keyboard-response,301,548160,0.0-1.0-60.0-0.0-1.0-0.0,0,0,61002,,,,,,58.0,,,,,,,,,,,,,,,,,,,,,,,,,,,,,,,,316.5,0.798,,,,,,
302,,isi,,html-keyboard-response,302,551164,0.0-1.0-60.0-0.0-2.0,0,0,61002,,,,,,,,,,,,,,,,,,,,,,,,,,,,,,,,,,,,,,319.5,3.0,,,,,,
303,,feedback,,html-keyboard-response,303,552170,0.0-1.0-60.0-0.0-3.0-0.0,0,0,61002,,,,,,58.0,,,,,,,,,,,,,,,,,,,,,,,,,,,,,,,,320.5,1.0,,,,,,
304,,iti,,html-keyboard-response,304,553175,0.0-1.0-60.0-0.0-5.0,0,0,61002,,,,,,,,,,,,,,,,,,,,,,,,,,,,,,,,,,,,,,321.5,1.0,,,,,,
305,,choice,,html-keyboard-response,305,553940,0.0-1.0-61.0-0.0-0.0,0,0,61002,,760.0,,,68.0,59.0,59.0,1500.0,1500.0,0.0,1.0,0.0,20-80,,1.0,frame,sofa,80.0,20.0,frame5,sofa11,60.0,0.0,AFRAME136.jpg,ALOVSEA19.jpg,/static/Category_learning/Stimuli/Experimental_stims/frame/AFRAME136.jpg,/static/Category_learning/Stimuli/Experimental_stims/sofa/ALOVSEA19.jpg,1.0,frame,sofa,80.0,20.0,frame5,sofa11,60.0,0.0,0.0,322.26,0.76,,,,,,
306,,confirmation,,html-keyboard-response,306,554685,0.0-1.0-61.0-0.0-1.0-0.0,0,0,61002,,,,,,59.0,,,,,,,,,,,,,,,,,,,,,,,,,,,,,,,,323.0,0.74,,,,,,
307,,isi,,html-keyboard-response,307,556189,0.0-1.0-61.0-0.0-2.0,0,0,61002,,,,,,,,,,,,,,,,,,,,,,,,,,,,,,,,,,,,,,324.5,1.5,,,,,,
308,,feedback,,html-keyboard-response,308,557193,0.0-1.0-61.0-0.0-3.0-0.0,0,0,61002,,,,,,59.0,,,,,,,,,,,,,,,,,,,,,,,,,,,,,,,,325.5,1.0,,,,,,
309,,iti,,html-keyboard-response,309,558697,0.0-1.0-61.0-0.0-5.0,0,0,61002,,,,,,,,,,,,,,,,,,,,,,,,,,,,,,,,,,,,,,327.0,1.5,,,,,,
310,,choice,,html-keyboard-response,310,559458,0.0-1.0-62.0-0.0-0.0,0,0,61002,,755.0,,,75.0,60.0,60.0,1000.0,2000.0,0.0,1.0,1.0,40-40,1.0,,tent,tent,40.0,40.0,tent14,tent5,20.0,60.0,inflatable-tent.jpg,Dome Tentnb87r67.jpg,/static/Category_learning/Stimuli/Experimental_stims/tent/inflatable-tent.jpg,/static/Category_learning/Stimuli/Experimental_stims/tent/Dome Tentnb87r67.jpg,0.0,tent,tent,40.0,40.0,tent5,tent14,60.0,20.0,0.0,327.755,0.755,,,,,,
311,,confirmation,,html-keyboard-response,311,560210,0.0-1.0-62.0-0.0-1.0-0.0,0,0,61002,,,,,,60.0,,,,,,,,,,,,,,,,,,,,,,,,,,,,,,,,328.5,0.745,,,,,,
312,,isi,,html-keyboard-response,312,561213,0.0-1.0-62.0-0.0-2.0,0,0,61002,,,,,,,,,,,,,,,,,,,,,,,,,,,,,,,,,,,,,,329.5,1.0,,,,,,
313,,feedback,,html-keyboard-response,313,562218,0.0-1.0-62.0-0.0-3.0-0.0,0,0,61002,,,,,,60.0,,,,,,,,,,,,,,,,,,,,,,,,,,,,,,,,330.5,1.0,,,,,,
314,,iti,,html-keyboard-response,314,564223,0.0-1.0-62.0-0.0-5.0,0,0,61002,,,,,,,,,,,,,,,,,,,,,,,,,,,,,,,,,,,,,,332.5,2.0,,,,,,
315,,choice,,html-keyboard-response,315,565163,0.0-1.0-63.0-0.0-0.0,0,0,61002,,936.0,,,75.0,61.0,61.0,3500.0,1500.0,0.0,1.0,0.0,20-40,,0.0,pen,vase,20.0,40.0,pen4,vase9,40.0,40.0,Montblanc_Greta_Garbo_BP copy.jpg,Avasewithang2.jpg,/static/Category_learning/Stimuli/Experimental_stims/pen/Montblanc_Greta_Garbo_BP copy.jpg,/static/Category_learning/Stimuli/Experimental_stims/vase/Avasewithang2.jpg,0.0,vase,pen,40.0,20.0,vase9,pen4,40.0,40.0,0.0,333.436,0.936,,,,,,
316,,confirmation,,html-keyboard-response,316,565733,0.0-1.0-63.0-0.0-1.0-0.0,0,0,61002,,,,,,61.0,,,,,,,,,,,,,,,,,,,,,,,,,,,,,,,,334.0,0.564,,,,,,
317,,isi,,html-keyboard-response,317,569237,0.0-1.0-63.0-0.0-2.0,0,0,61002,,,,,,,,,,,,,,,,,,,,,,,,,,,,,,,,,,,,,,337.5,3.5,,,,,,
318,,feedback,,html-keyboard-response,318,570243,0.0-1.0-63.0-0.0-3.0-0.0,0,0,61002,,,,,,61.0,,,,,,,,,,,,,,,,,,,,,,,,,,,,,,,,338.5,1.0,,,,,,
319,,iti,,html-keyboard-response,319,571748,0.0-1.0-63.0-0.0-5.0,0,0,61002,,,,,,,,,,,,,,,,,,,,,,,,,,,,,,,,,,,,,,340.0,1.5,,,,,,
320,,choice,,html-keyboard-response,320,572435,0.0-1.0-64.0-0.0-0.0,0,0,61002,,681.0,,,68.0,62.0,62.0,1000.0,2000.0,0.0,1.0,1.0,20-20,1.0,,sofa,sofa,20.0,20.0,sofa13,sofa8,40.0,20.0,ACOUCH25.jpg,allegro-leather-sofa-med2.jpg,/static/Category_learning/Stimuli/Experimental_stims/sofa/ACOUCH25.jpg,/static/Category_learning/Stimuli/Experimental_stims/sofa/allegro-leather-sofa-med2.jpg,1.0,sofa,sofa,20.0,20.0,sofa13,sofa8,40.0,20.0,0.0,340.681,0.681,,,,,,
321,,confirmation,,html-keyboard-response,321,573260,0.0-1.0-64.0-0.0-1.0-0.0,0,0,61002,,,,,,62.0,,,,,,,,,,,,,,,,,,,,,,,,,,,,,,,,341.5,0.819,,,,,,
322,,isi,,html-keyboard-response,322,574265,0.0-1.0-64.0-0.0-2.0,0,0,61002,,,,,,,,,,,,,,,,,,,,,,,,,,,,,,,,,,,,,,342.5,1.0,,,,,,
323,,feedback,,html-keyboard-response,323,575270,0.0-1.0-64.0-0.0-3.0-0.0,0,0,61002,,,,,,62.0,,,,,,,,,,,,,,,,,,,,,,,,,,,,,,,,343.5,1.0,,,,,,
324,,iti,,html-keyboard-response,324,577275,0.0-1.0-64.0-0.0-5.0,0,0,61002,,,,,,,,,,,,,,,,,,,,,,,,,,,,,,,,,,,,,,345.5,2.0,,,,,,
325,,choice,,html-keyboard-response,325,578059,0.0-1.0-65.0-0.0-0.0,0,0,61002,,779.0,,,68.0,63.0,63.0,1000.0,2000.0,0.0,1.0,0.0,20-60,,1.0,flashlight,nail polish,60.0,20.0,flashlight9,nail polish5,60.0,0.0,new06.jpg,182_t.jpg,/static/Category_learning/Stimuli/Experimental_stims/flashlight/new06.jpg,/static/Category_learning/Stimuli/Experimental_stims/nail polish/182_t.jpg,1.0,flashlight,nail polish,60.0,20.0,flashlight9,nail polish5,60.0,0.0,0.0,346.279,0.779,,,,,,
326,,confirmation,,html-keyboard-response,326,578785,0.0-1.0-65.0-0.0-1.0-0.0,0,0,61002,,,,,,63.0,,,,,,,,,,,,,,,,,,,,,,,,,,,,,,,,347.0,0.721,,,,,,
327,,isi,,html-keyboard-response,327,579789,0.0-1.0-65.0-0.0-2.0,0,0,61002,,,,,,,,,,,,,,,,,,,,,,,,,,,,,,,,,,,,,,348.0,1.0,,,,,,
328,,feedback,,html-keyboard-response,328,580807,0.0-1.0-65.0-0.0-3.0-0.0,0,0,61002,,,,,,63.0,,,,,,,,,,,,,,,,,,,,,,,,,,,,,,,,349.0,1.0,,,,,,
329,,iti,,html-keyboard-response,329,582812,0.0-1.0-65.0-0.0-5.0,0,0,61002,,,,,,,,,,,,,,,,,,,,,,,,,,,,,,,,,,,,,,351.0,2.0,,,,,,
330,,block_over,,html-keyboard-response,330,607508,0.0-1.0-65.0-0.0-7.0-0.0,0,0,61002,,24686.0,,,68.0,63.0,,,,,,,,,,,,,,,,,,,,,,,,,,,,,,,,,,,,,,,
331,,start_run,,html-keyboard-response,331,610851,0.0-1.0-65.0-0.0-7.0-1.0,0,0,61002,,3340.0,,,84.0,,,,,,,,,,,,,,,,,,,,,,,,,,,,,,,,,,,,,,,,
332,,choice,,html-keyboard-response,332,611819,0.0-1.0-66.0-0.0-0.0,0,0,61002,,962.0,,,68.0,64.0,65.0,3000.0,2000.0,0.0,2.0,0.0,40-40,,,watch,tape,40.0,40.0,watch9,tape2,40.0,20.0,mens-diamond-watches-euro-48733-ab.jpg,Tape_Dispenser.jpg,/static/Category_learning/Stimuli/Experimental_stims/watch/mens-diamond-watches-euro-48733-ab.jpg,/static/Category_learning/Stimuli/Experimental_stims/tape/Tape_Dispenser.jpg,1.0,watch,tape,40.0,40.0,watch9,tape2,40.0,20.0,0.0,0.962,0.962,,,,,,
333,,confirmation,,html-keyboard-response,333,612363,0.0-1.0-66.0-0.0-1.0-0.0,0,0,61002,,,,,,64.0,,,,,,,,,,,,,,,,,,,,,,,,,,,,,,,,1.5,0.538,,,,,,
334,,isi,,html-keyboard-response,334,615367,0.0-1.0-66.0-0.0-2.0,0,0,61002,,,,,,,,,,,,,,,,,,,,,,,,,,,,,,,,,,,,,,4.5,3.0,,,,,,
335,,feedback,,html-keyboard-response,335,616373,0.0-1.0-66.0-0.0-3.0-0.0,0,0,61002,,,,,,64.0,,,,,,,,,,,,,,,,,,,,,,,,,,,,,,,,5.5,1.0,,,,,,
336,,iti,,html-keyboard-response,336,618377,0.0-1.0-66.0-0.0-5.0,0,0,61002,,,,,,,,,,,,,,,,,,,,,,,,,,,,,,,,,,,,,,7.5,2.0,,,,,,
337,,choice,,html-keyboard-response,337,619211,0.0-1.0-67.0-0.0-0.0,0,0,61002,,829.0,,,68.0,65.0,66.0,3000.0,1500.0,0.0,2.0,0.0,20-60,,0.0,pen,bowl,20.0,60.0,pen3,bowl13,0.0,80.0,pen08.jpg,Asoupbowl8.jpg,/static/Category_learning/Stimuli/Experimental_stims/pen/pen08.jpg,/static/Category_learning/Stimuli/Experimental_stims/bowl/Asoupbowl8.jpg,1.0,pen,bowl,20.0,60.0,pen3,bowl13,0.0,80.0,0.0,8.329,0.829,,,,,,
338,,confirmation,,html-keyboard-response,338,619888,0.0-1.0-67.0-0.0-1.0-0.0,0,0,61002,,,,,,65.0,,,,,,,,,,,,,,,,,,,,,,,,,,,,,,,,9.0,0.671,,,,,,
339,,isi,,html-keyboard-response,339,622892,0.0-1.0-67.0-0.0-2.0,0,0,61002,,,,,,,,,,,,,,,,,,,,,,,,,,,,,,,,,,,,,,12.0,3.0,,,,,,
340,,feedback,,html-keyboard-response,340,623897,0.0-1.0-67.0-0.0-3.0-0.0,0,0,61002,,,,,,65.0,,,,,,,,,,,,,,,,,,,,,,,,,,,,,,,,13.0,1.0,,,,,,
341,,iti,,html-keyboard-response,341,625401,0.0-1.0-67.0-0.0-5.0,0,0,61002,,,,,,,,,,,,,,,,,,,,,,,,,,,,,,,,,,,,,,14.5,1.5,,,,,,
342,,choice,,html-keyboard-response,342,626451,0.0-1.0-68.0-0.0-0.0,0,0,61002,,1045.0,,,75.0,66.0,67.0,1000.0,3000.0,0.0,2.0,0.0,20-60,,0.0,nail polish,bongo,20.0,60.0,nail polish1,bongo8,20.0,80.0,200.jpg,26390661.thl.jpg,/static/Category_learning/Stimuli/Experimental_stims/nail polish/200.jpg,/static/Category_learning/Stimuli/Experimental_stims/bongo/26390661.thl.jpg,0.0,bongo,nail polish,60.0,20.0,bongo8,nail polish1,80.0,20.0,0.0,15.545,1.045,,,,,,
343,,confirmation,,html-keyboard-response,343,626913,0.0-1.0-68.0-0.0-1.0-0.0,0,0,61002,,,,,,66.0,,,,,,,,,,,,,,,,,,,,,,,,,,,,,,,,16.0,0.455,,,,,,
344,,isi,,html-keyboard-response,344,627917,0.0-1.0-68.0-0.0-2.0,0,0,61002,,,,,,,,,,,,,,,,,,,,,,,,,,,,,,,,,,,,,,17.0,1.0,,,,,,
345,,feedback,,html-keyboard-response,345,628922,0.0-1.0-68.0-0.0-3.0-0.0,0,0,61002,,,,,,66.0,,,,,,,,,,,,,,,,,,,,,,,,,,,,,,,,18.0,1.0,,,,,,
346,,iti,,html-keyboard-response,346,631926,0.0-1.0-68.0-0.0-5.0,0,0,61002,,,,,,,,,,,,,,,,,,,,,,,,,,,,,,,,,,,,,,21.0,3.0,,,,,,
347,,choice,,html-keyboard-response,347,632891,0.0-1.0-69.0-0.0-0.0,0,0,61002,,959.0,,,68.0,67.0,68.0,1000.0,2000.0,0.0,2.0,0.0,20-20,,,power strip,patio lounge chair,20.0,20.0,power strip14,patio lounge chair13,20.0,20.0,88b2c724-e781-44ae-85d5-27b7591f659d_400.jpg,grosfillex-bahia-resin-chaise-lounges.jpg,/static/Category_learning/Stimuli/Experimental_stims/power strip/88b2c724-e781-44ae-85d5-27b7591f659d_400.jpg,/static/Category_learning/Stimuli/Experimental_stims/patio lounge chair/grosfillex-bahia-resin-chaise-lounges.jpg,1.0,power strip,patio lounge chair,20.0,20.0,power strip14,patio lounge chair13,20.0,20.0,0.0,21.959,0.959,,,,,,
348,,confirmation,,html-keyboard-response,348,633436,0.0-1.0-69.0-0.0-1.0-0.0,0,0,61002,,,,,,67.0,,,,,,,,,,,,,,,,,,,,,,,,,,,,,,,,22.5,0.541,,,,,,
349,,isi,,html-keyboard-response,349,634441,0.0-1.0-69.0-0.0-2.0,0,0,61002,,,,,,,,,,,,,,,,,,,,,,,,,,,,,,,,,,,,,,23.5,1.0,,,,,,
350,,feedback,,html-keyboard-response,350,635445,0.0-1.0-69.0-0.0-3.0-0.0,0,0,61002,,,,,,67.0,,,,,,,,,,,,,,,,,,,,,,,,,,,,,,,,24.5,1.0,,,,,,
351,,iti,,html-keyboard-response,351,637451,0.0-1.0-69.0-0.0-5.0,0,0,61002,,,,,,,,,,,,,,,,,,,,,,,,,,,,,,,,,,,,,,26.5,2.0,,,,,,
352,,choice,,html-keyboard-response,352,638403,0.0-1.0-70.0-0.0-0.0,0,0,61002,,948.0,,,68.0,68.0,69.0,1500.0,1500.0,0.0,2.0,0.0,40-40,,,tent,train,40.0,40.0,tent2,train1,40.0,40.0,Atent16.jpg,Model_Train.jpg,/static/Category_learning/Stimuli/Experimental_stims/tent/Atent16.jpg,/static/Category_learning/Stimuli/Experimental_stims/train/Model_Train.jpg,1.0,tent,train,40.0,40.0,tent2,train1,40.0,40.0,0.0,27.448,0.948,,,,,,
353,,confirmation,,html-keyboard-response,353,638961,0.0-1.0-70.0-0.0-1.0-0.0,0,0,61002,,,,,,68.0,,,,,,,,,,,,,,,,,,,,,,,,,,,,,,,,28.0,0.552,,,,,,
354,,isi,,html-keyboard-response,354,640465,0.0-1.0-70.0-0.0-2.0,0,0,61002,,,,,,,,,,,,,,,,,,,,,,,,,,,,,,,,,,,,,,29.5,1.5,,,,,,
355,,feedback,,html-keyboard-response,355,641471,0.0-1.0-70.0-0.0-3.0-0.0,0,0,61002,,,,,,68.0,,,,,,,,,,,,,,,,,,,,,,,,,,,,,,,,30.5,1.0,,,,,,
356,,iti,,html-keyboard-response,356,642975,0.0-1.0-70.0-0.0-5.0,0,0,61002,,,,,,,,,,,,,,,,,,,,,,,,,,,,,,,,,,,,,,32.0,1.5,,,,,,
357,,choice,,html-keyboard-response,357,644036,0.0-1.0-71.0-0.0-0.0,0,0,61002,,1054.0,,,68.0,69.0,70.0,1500.0,1500.0,0.0,2.0,0.0,40-80,,1.0,key chain,vase,80.0,40.0,key chain5,vase7,60.0,60.0,keychain-metal-logo.jpg,8246344.thl.jpg,/static/Category_learning/Stimuli/Experimental_stims/key chain/keychain-metal-logo.jpg,/static/Category_learning/Stimuli/Experimental_stims/vase/8246344.thl.jpg,1.0,key chain,vase,80.0,40.0,key chain5,vase7,60.0,60.0,0.0,33.054,1.054,,,,,,
358,,confirmation,,html-keyboard-response,358,644487,0.0-1.0-71.0-0.0-1.0-0.0,0,0,61002,,,,,,69.0,,,,,,,,,,,,,,,,,,,,,,,,,,,,,,,,33.5,0.446,,,,,,
359,,isi,,html-keyboard-response,359,645992,0.0-1.0-71.0-0.0-2.0,0,0,61002,,,,,,,,,,,,,,,,,,,,,,,,,,,,,,,,,,,,,,35.0,1.5,,,,,,
360,,feedback,,html-keyboard-response,360,646996,0.0-1.0-71.0-0.0-3.0-0.0,0,0,61002,,,,,,69.0,,,,,,,,,,,,,,,,,,,,,,,,,,,,,,,,36.0,1.0,,,,,,
361,,iti,,html-keyboard-response,361,648501,0.0-1.0-71.0-0.0-5.0,0,0,61002,,,,,,,,,,,,,,,,,,,,,,,,,,,,,,,,,,,,,,37.5,1.5,,,,,,
362,,choice,,html-keyboard-response,362,649427,0.0-1.0-72.0-0.0-0.0,0,0,61002,,922.0,,,68.0,70.0,71.0,1000.0,2000.0,0.0,2.0,0.0,20-40,,0.0,power strip,trumpet,20.0,40.0,power strip5,trumpet8,0.0,60.0,93e4a283-bcd6-4ad1-8add-339658cda0fc_400.jpg,trumpet33.jpg,/static/Category_learning/Stimuli/Experimental_stims/power strip/93e4a283-bcd6-4ad1-8add-339658cda0fc_400.jpg,/static/Category_learning/Stimuli/Experimental_stims/trumpet/trumpet33.jpg,1.0,power strip,trumpet,20.0,40.0,power strip5,trumpet8,0.0,60.0,0.0,38.422,0.922,,,,,,
363,,confirmation,,html-keyboard-response,363,650011,0.0-1.0-72.0-0.0-1.0-0.0,0,0,61002,,,,,,70.0,,,,,,,,,,,,,,,,,,,,,,,,,,,,,,,,39.0,0.578,,,,,,
364,,isi,,html-keyboard-response,364,651014,0.0-1.0-72.0-0.0-2.0,0,0,61002,,,,,,,,,,,,,,,,,,,,,,,,,,,,,,,,,,,,,,40.0,1.0,,,,,,
365,,feedback,,html-keyboard-response,365,652019,0.0-1.0-72.0-0.0-3.0-0.0,0,0,61002,,,,,,70.0,,,,,,,,,,,,,,,,,,,,,,,,,,,,,,,,41.0,1.0,,,,,,
366,,iti,,html-keyboard-response,366,654024,0.0-1.0-72.0-0.0-5.0,0,0,61002,,,,,,,,,,,,,,,,,,,,,,,,,,,,,,,,,,,,,,43.0,2.0,,,,,,
367,,choice,,html-keyboard-response,367,654779,0.0-1.0-73.0-0.0-0.0,0,0,61002,,751.0,,,75.0,71.0,72.0,3500.0,1000.0,0.0,2.0,0.0,40-80,,1.0,key chain,watch,80.0,40.0,key chain10,watch3,80.0,60.0,Smurfs_Keychains_Smurf_Row_Boat.jpg,B0000TIIVO.01._SCLZZZZZZZ_V1124920780_.jpg,/static/Category_learning/Stimuli/Experimental_stims/key chain/Smurfs_Keychains_Smurf_Row_Boat.jpg,/static/Category_learning/Stimuli/Experimental_stims/watch/B0000TIIVO.01._SCLZZZZZZZ_V1124920780_.jpg,0.0,watch,key chain,40.0,80.0,watch3,key chain10,60.0,80.0,0.0,43.751,0.751,,,,,,
368,,confirmation,,html-keyboard-response,368,655533,0.0-1.0-73.0-0.0-1.0-0.0,0,0,61002,,,,,,71.0,,,,,,,,,,,,,,,,,,,,,,,,,,,,,,,,44.5,0.749,,,,,,
369,,isi,,html-keyboard-response,369,659039,0.0-1.0-73.0-0.0-2.0,0,0,61002,,,,,,,,,,,,,,,,,,,,,,,,,,,,,,,,,,,,,,48.0,3.5,,,,,,
370,,feedback,,html-keyboard-response,370,660045,0.0-1.0-73.0-0.0-3.0-0.0,0,0,61002,,,,,,71.0,,,,,,,,,,,,,,,,,,,,,,,,,,,,,,,,49.0,1.0,,,,,,
371,,iti,,html-keyboard-response,371,661051,0.0-1.0-73.0-0.0-5.0,0,0,61002,,,,,,,,,,,,,,,,,,,,,,,,,,,,,,,,,,,,,,50.0,1.0,,,,,,
372,,choice,,html-keyboard-response,372,661683,0.0-1.0-74.0-0.0-0.0,0,0,61002,,627.0,,,68.0,72.0,73.0,2000.0,2000.0,0.0,2.0,0.0,20-60,,0.0,small table,baby carriage,20.0,60.0,small table3,baby carriage14,20.0,80.0,Atable122.jpg,peg_perego_uno_verde.jpg,/static/Category_learning/Stimuli/Experimental_stims/small table/Atable122.jpg,/static/Category_learning/Stimuli/Experimental_stims/baby carriage/peg_perego_uno_verde.jpg,1.0,small table,baby carriage,20.0,60.0,small table3,baby carriage14,20.0,80.0,0.0,50.627,0.627,,,,,,
373,,confirmation,,html-keyboard-response,373,662561,0.0-1.0-74.0-0.0-1.0-0.0,0,0,61002,,,,,,72.0,,,,,,,,,,,,,,,,,,,,,,,,,,,,,,,,51.5,0.873,,,,,,
374,,isi,,html-keyboard-response,374,664566,0.0-1.0-74.0-0.0-2.0,0,0,61002,,,,,,,,,,,,,,,,,,,,,,,,,,,,,,,,,,,,,,53.5,2.0,,,,,,
375,,feedback,,html-keyboard-response,375,665571,0.0-1.0-74.0-0.0-3.0-0.0,0,0,61002,,,,,,72.0,,,,,,,,,,,,,,,,,,,,,,,,,,,,,,,,54.5,1.0,,,,,,
376,,iti,,html-keyboard-response,376,667576,0.0-1.0-74.0-0.0-5.0,0,0,61002,,,,,,,,,,,,,,,,,,,,,,,,,,,,,,,,,,,,,,56.5,2.0,,,,,,
377,,choice,,html-keyboard-response,377,668307,0.0-1.0-75.0-0.0-0.0,0,0,61002,,727.0,,,75.0,73.0,74.0,2000.0,3500.0,0.0,2.0,0.0,40-60,,1.0,baby carriage,train,60.0,40.0,baby carriage13,train15,40.0,40.0,300px-Barnevogn2.jpg,master-TD006.jpg,/static/Category_learning/Stimuli/Experimental_stims/baby carriage/300px-Barnevogn2.jpg,/static/Category_learning/Stimuli/Experimental_stims/train/master-TD006.jpg,0.0,train,baby carriage,40.0,60.0,train15,baby carriage13,40.0,40.0,0.0,57.227,0.727,,,,,,
378,,confirmation,,html-keyboard-response,378,669094,0.0-1.0-75.0-0.0-1.0-0.0,0,0,61002,,,,,,73.0,,,,,,,,,,,,,,,,,,,,,,,,,,,,,,,,58.0,0.773,,,,,,
379,,isi,,html-keyboard-response,379,671099,0.0-1.0-75.0-0.0-2.0,0,0,61002,,,,,,,,,,,,,,,,,,,,,,,,,,,,,,,,,,,,,,60.0,2.0,,,,,,
380,,feedback,,html-keyboard-response,380,672105,0.0-1.0-75.0-0.0-3.0-0.0,0,0,61002,,,,,,73.0,,,,,,,,,,,,,,,,,,,,,,,,,,,,,,,,61.0,1.0,,,,,,
381,,iti,,html-keyboard-response,381,675610,0.0-1.0-75.0-0.0-5.0,0,0,61002,,,,,,,,,,,,,,,,,,,,,,,,,,,,,,,,,,,,,,64.5,3.5,,,,,,
382,,choice,,html-keyboard-response,382,676363,0.0-1.0-76.0-0.0-0.0,0,0,61002,,748.0,,,68.0,74.0,75.0,1000.0,1000.0,0.0,2.0,0.0,40-80,,0.0,trumpet,hat,40.0,80.0,trumpet2,hat12,40.0,60.0,Matt-Stevens-Pocket-Trumpet.jpg,Aformalhat5.jpg,/static/Category_learning/Stimuli/Experimental_stims/trumpet/Matt-Stevens-Pocket-Trumpet.jpg,/static/Category_learning/Stimuli/Experimental_stims/hat/Aformalhat5.jpg,1.0,trumpet,hat,40.0,80.0,trumpet2,hat12,40.0,60.0,0.0,65.248,0.748,,,,,,
383,,confirmation,,html-keyboard-response,383,677121,0.0-1.0-76.0-0.0-1.0-0.0,0,0,61002,,,,,,74.0,,,,,,,,,,,,,,,,,,,,,,,,,,,,,,,,66.0,0.752,,,,,,
384,,isi,,html-keyboard-response,384,678125,0.0-1.0-76.0-0.0-2.0,0,0,61002,,,,,,,,,,,,,,,,,,,,,,,,,,,,,,,,,,,,,,67.0,1.0,,,,,,
385,,feedback,,html-keyboard-response,385,679130,0.0-1.0-76.0-0.0-3.0-0.0,0,0,61002,,,,,,74.0,,,,,,,,,,,,,,,,,,,,,,,,,,,,,,,,68.0,1.0,,,,,,
386,,iti,,html-keyboard-response,386,680134,0.0-1.0-76.0-0.0-5.0,0,0,61002,,,,,,,,,,,,,,,,,,,,,,,,,,,,,,,,,,,,,,69.0,1.0,,,,,,
387,,choice,,html-keyboard-response,387,681116,0.0-1.0-77.0-0.0-0.0,0,0,61002,,976.0,,,68.0,75.0,76.0,1000.0,1000.0,0.0,2.0,0.0,20-40,,1.0,trumpet,poker card,40.0,20.0,trumpet1,poker card2,60.0,40.0,JUPITER+TROMPETTE+606MRL.JPG,22864716.thl.jpg,/static/Category_learning/Stimuli/Experimental_stims/trumpet/JUPITER+TROMPETTE+606MRL.JPG,/static/Category_learning/Stimuli/Experimental_stims/poker card/22864716.thl.jpg,1.0,trumpet,poker card,40.0,20.0,trumpet1,poker card2,60.0,40.0,0.0,69.976,0.976,,,,,,
388,,confirmation,,html-keyboard-response,388,681646,0.0-1.0-77.0-0.0-1.0-0.0,0,0,61002,,,,,,75.0,,,,,,,,,,,,,,,,,,,,,,,,,,,,,,,,70.5,0.524,,,,,,
389,,isi,,html-keyboard-response,389,682650,0.0-1.0-77.0-0.0-2.0,0,0,61002,,,,,,,,,,,,,,,,,,,,,,,,,,,,,,,,,,,,,,71.5,1.0,,,,,,
390,,feedback,,html-keyboard-response,390,683656,0.0-1.0-77.0-0.0-3.0-0.0,0,0,61002,,,,,,75.0,,,,,,,,,,,,,,,,,,,,,,,,,,,,,,,,72.5,1.0,,,,,,
391,,iti,,html-keyboard-response,391,684661,0.0-1.0-77.0-0.0-5.0,0,0,61002,,,,,,,,,,,,,,,,,,,,,,,,,,,,,,,,,,,,,,73.5,1.0,,,,,,
392,,choice,,html-keyboard-response,392,685611,0.0-1.0-78.0-0.0-0.0,0,0,61002,,946.0,,,75.0,76.0,77.0,1500.0,1000.0,0.0,2.0,0.0,20-80,,1.0,microscope,necklace,80.0,20.0,microscope5,necklace4,100.0,20.0,emMicroscope.jpg,emerald_diamond_necklace.jpg,/static/Category_learning/Stimuli/Experimental_stims/microscope/emMicroscope.jpg,/static/Category_learning/Stimuli/Experimental_stims/necklace/emerald_diamond_necklace.jpg,0.0,necklace,microscope,20.0,80.0,necklace4,microscope5,20.0,100.0,0.0,74.446,0.946,,,,,,
393,,confirmation,,html-keyboard-response,393,686171,0.0-1.0-78.0-0.0-1.0-0.0,0,0,61002,,,,,,76.0,,,,,,,,,,,,,,,,,,,,,,,,,,,,,,,,75.0,0.554,,,,,,
394,,isi,,html-keyboard-response,394,687675,0.0-1.0-78.0-0.0-2.0,0,0,61002,,,,,,,,,,,,,,,,,,,,,,,,,,,,,,,,,,,,,,76.5,1.5,,,,,,
395,,feedback,,html-keyboard-response,395,688681,0.0-1.0-78.0-0.0-3.0-0.0,0,0,61002,,,,,,76.0,,,,,,,,,,,,,,,,,,,,,,,,,,,,,,,,77.5,1.0,,,,,,
396,,iti,,html-keyboard-response,396,689685,0.0-1.0-78.0-0.0-5.0,0,0,61002,,,,,,,,,,,,,,,,,,,,,,,,,,,,,,,,,,,,,,78.5,1.0,,,,,,
397,,choice,,html-keyboard-response,397,690747,0.0-1.0-79.0-0.0-0.0,0,0,61002,,1056.0,,,75.0,77.0,78.0,1500.0,2000.0,0.0,2.0,1.0,40-40,1.0,,watch,watch,40.0,40.0,watch9,watch3,40.0,60.0,mens-diamond-watches-euro-48733-ab.jpg,B0000TIIVO.01._SCLZZZZZZZ_V1124920780_.jpg,/static/Category_learning/Stimuli/Experimental_stims/watch/mens-diamond-watches-euro-48733-ab.jpg,/static/Category_learning/Stimuli/Experimental_stims/watch/B0000TIIVO.01._SCLZZZZZZZ_V1124920780_.jpg,0.0,watch,watch,40.0,40.0,watch3,watch9,60.0,40.0,0.0,79.556,1.056,,,,,,
398,,confirmation,,html-keyboard-response,398,691195,0.0-1.0-79.0-0.0-1.0-0.0,0,0,61002,,,,,,77.0,,,,,,,,,,,,,,,,,,,,,,,,,,,,,,,,80.0,0.444,,,,,,
399,,isi,,html-keyboard-response,399,692699,0.0-1.0-79.0-0.0-2.0,0,0,61002,,,,,,,,,,,,,,,,,,,,,,,,,,,,,,,,,,,,,,81.5,1.5,,,,,,
400,,feedback,,html-keyboard-response,400,693705,0.0-1.0-79.0-0.0-3.0-0.0,0,0,61002,,,,,,77.0,,,,,,,,,,,,,,,,,,,,,,,,,,,,,,,,82.5,1.0,,,,,,
401,,iti,,html-keyboard-response,401,695710,0.0-1.0-79.0-0.0-5.0,0,0,61002,,,,,,,,,,,,,,,,,,,,,,,,,,,,,,,,,,,,,,84.5,2.0,,,,,,
402,,choice,,html-keyboard-response,402,696627,0.0-1.0-80.0-0.0-0.0,0,0,61002,,912.0,,,75.0,78.0,79.0,1500.0,3500.0,0.0,2.0,1.0,40-40,1.0,,train,train,40.0,40.0,train15,train6,40.0,20.0,master-TD006.jpg,train9.jpg,/static/Category_learning/Stimuli/Experimental_stims/train/master-TD006.jpg,/static/Category_learning/Stimuli/Experimental_stims/train/train9.jpg,0.0,train,train,40.0,40.0,train6,train15,20.0,40.0,0.0,85.412,0.912,,,,,,
403,,confirmation,,html-keyboard-response,403,697220,0.0-1.0-80.0-0.0-1.0-0.0,0,0,61002,,,,,,78.0,,,,,,,,,,,,,,,,,,,,,,,,,,,,,,,,86.0,0.588,,,,,,
404,,isi,,html-keyboard-response,404,698724,0.0-1.0-80.0-0.0-2.0,0,0,61002,,,,,,,,,,,,,,,,,,,,,,,,,,,,,,,,,,,,,,87.5,1.5,,,,,,
405,,feedback,,html-keyboard-response,405,699730,0.0-1.0-80.0-0.0-3.0-0.0,0,0,61002,,,,,,78.0,,,,,,,,,,,,,,,,,,,,,,,,,,,,,,,,88.5,1.0,,,,,,
406,,iti,,html-keyboard-response,406,703234,0.0-1.0-80.0-0.0-5.0,0,0,61002,,,,,,,,,,,,,,,,,,,,,,,,,,,,,,,,,,,,,,92.0,3.5,,,,,,
407,,choice,,html-keyboard-response,407,704587,0.0-1.0-81.0-0.0-0.0,0,0,61002,,1347.0,,,75.0,79.0,80.0,1000.0,2000.0,0.0,2.0,0.0,20-80,,0.0,pen,key chain,20.0,80.0,pen6,key chain13,40.0,100.0,executive_pen2.jpg,Fancy_Liquid_Column_Shape_Key_Ring_with_Floater.jpg,/static/Category_learning/Stimuli/Experimental_stims/pen/executive_pen2.jpg,/static/Category_learning/Stimuli/Experimental_stims/key chain/Fancy_Liquid_Column_Shape_Key_Ring_with_Floater.jpg,0.0,key chain,pen,80.0,20.0,key chain13,pen6,100.0,40.0,0.0,93.347,1.347,,,,,,
408,,confirmation,,html-keyboard-response,408,704747,0.0-1.0-81.0-0.0-1.0-0.0,0,0,61002,,,,,,79.0,,,,,,,,,,,,,,,,,,,,,,,,,,,,,,,,93.5,0.153,,,,,,
409,,isi,,html-keyboard-response,409,705765,0.0-1.0-81.0-0.0-2.0,0,0,61002,,,,,,,,,,,,,,,,,,,,,,,,,,,,,,,,,,,,,,94.5,1.0,,,,,,
410,,feedback,,html-keyboard-response,410,706769,0.0-1.0-81.0-0.0-3.0-0.0,0,0,61002,,,,,,79.0,,,,,,,,,,,,,,,,,,,,,,,,,,,,,,,,95.5,1.0,,,,,,
411,,iti,,html-keyboard-response,411,708774,0.0-1.0-81.0-0.0-5.0,0,0,61002,,,,,,,,,,,,,,,,,,,,,,,,,,,,,,,,,,,,,,97.5,2.0,,,,,,
412,,choice,,html-keyboard-response,412,709964,0.0-1.0-82.0-0.0-0.0,0,0,61002,,1184.0,,,75.0,80.0,81.0,3500.0,2000.0,0.0,2.0,0.0,60-60,,,bowl,bench,60.0,60.0,bowl7,bench2,80.0,60.0,Abowl54.jpg,26369969.thl.jpg,/static/Category_learning/Stimuli/Experimental_stims/bowl/Abowl54.jpg,/static/Category_learning/Stimuli/Experimental_stims/bench/26369969.thl.jpg,0.0,bench,bowl,60.0,60.0,bench2,bowl7,60.0,80.0,0.0,98.684,1.184,,,,,,
413,,confirmation,,html-keyboard-response,413,710285,0.0-1.0-82.0-0.0-1.0-0.0,0,0,61002,,,,,,80.0,,,,,,,,,,,,,,,,,,,,,,,,,,,,,,,,99.0,0.316,,,,,,
414,,isi,,html-keyboard-response,414,713790,0.0-1.0-82.0-0.0-2.0,0,0,61002,,,,,,,,,,,,,,,,,,,,,,,,,,,,,,,,,,,,,,102.5,3.5,,,,,,
415,,feedback,,html-keyboard-response,415,714795,0.0-1.0-82.0-0.0-3.0-0.0,0,0,61002,,,,,,80.0,,,,,,,,,,,,,,,,,,,,,,,,,,,,,,,,103.5,1.0,,,,,,
416,,iti,,html-keyboard-response,416,716799,0.0-1.0-82.0-0.0-5.0,0,0,61002,,,,,,,,,,,,,,,,,,,,,,,,,,,,,,,,,,,,,,105.5,2.0,,,,,,
417,,choice,,html-keyboard-response,417,718051,0.0-1.0-83.0-0.0-0.0,0,0,61002,,1246.0,,,75.0,81.0,82.0,1000.0,1500.0,0.0,2.0,0.0,60-80,,1.0,frame,bench,80.0,60.0,frame14,bench1,80.0,40.0,AFRAME129.jpg,26419975.thl.jpg,/static/Category_learning/Stimuli/Experimental_stims/frame/AFRAME129.jpg,/static/Category_learning/Stimuli/Experimental_stims/bench/26419975.thl.jpg,0.0,bench,frame,60.0,80.0,bench1,frame14,40.0,80.0,0.0,106.746,1.246,,,,,,
418,,confirmation,,html-keyboard-response,418,718318,0.0-1.0-83.0-0.0-1.0-0.0,0,0,61002,,,,,,81.0,,,,,,,,,,,,,,,,,,,,,,,,,,,,,,,,107.0,0.254,,,,,,
419,,isi,,html-keyboard-response,419,719321,0.0-1.0-83.0-0.0-2.0,0,0,61002,,,,,,,,,,,,,,,,,,,,,,,,,,,,,,,,,,,,,,108.0,1.0,,,,,,
420,,feedback,,html-keyboard-response,420,720327,0.0-1.0-83.0-0.0-3.0-0.0,0,0,61002,,,,,,81.0,,,,,,,,,,,,,,,,,,,,,,,,,,,,,,,,109.0,1.0,,,,,,
421,,iti,,html-keyboard-response,421,721831,0.0-1.0-83.0-0.0-5.0,0,0,61002,,,,,,,,,,,,,,,,,,,,,,,,,,,,,,,,,,,,,,110.5,1.5,,,,,,
422,,choice,,html-keyboard-response,422,722692,0.0-1.0-84.0-0.0-0.0,0,0,61002,,855.0,,,75.0,82.0,83.0,1500.0,1000.0,0.0,2.0,0.0,20-80,,1.0,key chain,poker card,80.0,20.0,key chain6,poker card12,80.0,20.0,highboy_keychain_ItemCA75384.jpg,22865676.thl.jpg,/static/Category_learning/Stimuli/Experimental_stims/key chain/highboy_keychain_ItemCA75384.jpg,/static/Category_learning/Stimuli/Experimental_stims/poker card/22865676.thl.jpg,0.0,poker card,key chain,20.0,80.0,poker card12,key chain6,20.0,80.0,0.0,111.355,0.855,,,,,,
423,,confirmation,,html-keyboard-response,423,723343,0.0-1.0-84.0-0.0-1.0-0.0,0,0,61002,,,,,,82.0,,,,,,,,,,,,,,,,,,,,,,,,,,,,,,,,112.0,0.645,,,,,,
424,,isi,,html-keyboard-response,424,724848,0.0-1.0-84.0-0.0-2.0,0,0,61002,,,,,,,,,,,,,,,,,,,,,,,,,,,,,,,,,,,,,,113.5,1.5,,,,,,
425,,feedback,,html-keyboard-response,425,725853,0.0-1.0-84.0-0.0-3.0-0.0,0,0,61002,,,,,,82.0,,,,,,,,,,,,,,,,,,,,,,,,,,,,,,,,114.5,1.0,,,,,,
426,,iti,,html-keyboard-response,426,726857,0.0-1.0-84.0-0.0-5.0,0,0,61002,,,,,,,,,,,,,,,,,,,,,,,,,,,,,,,,,,,,,,115.5,1.0,,,,,,
427,,choice,,html-keyboard-response,427,728019,0.0-1.0-85.0-0.0-0.0,0,0,61002,,1157.0,,,68.0,83.0,84.0,2000.0,1500.0,0.0,2.0,0.0,20-60,,0.0,poker card,bowl,20.0,60.0,poker card6,bowl1,40.0,40.0,22864212.thl.jpg,ABOWLS6.jpg,/static/Category_learning/Stimuli/Experimental_stims/poker card/22864212.thl.jpg,/static/Category_learning/Stimuli/Experimental_stims/bowl/ABOWLS6.jpg,1.0,poker card,bowl,20.0,60.0,poker card6,bowl1,40.0,40.0,0.0,116.657,1.157,,,,,,
428,,confirmation,,html-keyboard-response,428,728367,0.0-1.0-85.0-0.0-1.0-0.0,0,0,61002,,,,,,83.0,,,,,,,,,,,,,,,,,,,,,,,,,,,,,,,,117.0,0.343,,,,,,
429,,isi,,html-keyboard-response,429,730372,0.0-1.0-85.0-0.0-2.0,0,0,61002,,,,,,,,,,,,,,,,,,,,,,,,,,,,,,,,,,,,,,119.0,2.0,,,,,,
430,,feedback,,html-keyboard-response,430,731377,0.0-1.0-85.0-0.0-3.0-0.0,0,0,61002,,,,,,83.0,,,,,,,,,,,,,,,,,,,,,,,,,,,,,,,,120.0,1.0,,,,,,
431,,iti,,html-keyboard-response,431,732882,0.0-1.0-85.0-0.0-5.0,0,0,61002,,,,,,,,,,,,,,,,,,,,,,,,,,,,,,,,,,,,,,121.5,1.5,,,,,,
432,,choice,,html-keyboard-response,432,733676,0.0-1.0-86.0-0.0-0.0,0,0,61002,,788.0,,,68.0,84.0,85.0,1500.0,3500.0,0.0,2.0,1.0,60-60,1.0,,bench,bench,60.0,60.0,bench4,bench1,40.0,40.0,30892819.thl.jpg,26419975.thl.jpg,/static/Category_learning/Stimuli/Experimental_stims/bench/30892819.thl.jpg,/static/Category_learning/Stimuli/Experimental_stims/bench/26419975.thl.jpg,1.0,bench,bench,60.0,60.0,bench4,bench1,40.0,40.0,0.0,122.288,0.788,,,,,,
433,,confirmation,,html-keyboard-response,433,734393,0.0-1.0-86.0-0.0-1.0-0.0,0,0,61002,,,,,,84.0,,,,,,,,,,,,,,,,,,,,,,,,,,,,,,,,123.0,0.712,,,,,,
434,,isi,,html-keyboard-response,434,735897,0.0-1.0-86.0-0.0-2.0,0,0,61002,,,,,,,,,,,,,,,,,,,,,,,,,,,,,,,,,,,,,,124.5,1.5,,,,,,
435,,feedback,,html-keyboard-response,435,736902,0.0-1.0-86.0-0.0-3.0-0.0,0,0,61002,,,,,,84.0,,,,,,,,,,,,,,,,,,,,,,,,,,,,,,,,125.5,1.0,,,,,,
436,,iti,,html-keyboard-response,436,740406,0.0-1.0-86.0-0.0-5.0,0,0,61002,,,,,,,,,,,,,,,,,,,,,,,,,,,,,,,,,,,,,,129.0,3.5,,,,,,
437,,choice,,html-keyboard-response,437,741299,0.0-1.0-87.0-0.0-0.0,0,0,61002,,887.0,,,68.0,85.0,86.0,1000.0,1000.0,0.0,2.0,0.0,40-80,,1.0,frame,tape,80.0,40.0,frame1,tape11,80.0,20.0,AFRAME127.jpg,41FZA73H4JL._AA280_.jpg,/static/Category_learning/Stimuli/Experimental_stims/frame/AFRAME127.jpg,/static/Category_learning/Stimuli/Experimental_stims/tape/41FZA73H4JL._AA280_.jpg,1.0,frame,tape,80.0,40.0,frame1,tape11,80.0,20.0,0.0,129.887,0.887,,,,,,
438,,confirmation,,html-keyboard-response,438,741917,0.0-1.0-87.0-0.0-1.0-0.0,0,0,61002,,,,,,85.0,,,,,,,,,,,,,,,,,,,,,,,,,,,,,,,,130.5,0.613,,,,,,
439,,isi,,html-keyboard-response,439,742922,0.0-1.0-87.0-0.0-2.0,0,0,61002,,,,,,,,,,,,,,,,,,,,,,,,,,,,,,,,,,,,,,131.5,1.0,,,,,,
440,,feedback,,html-keyboard-response,440,743927,0.0-1.0-87.0-0.0-3.0-0.0,0,0,61002,,,,,,85.0,,,,,,,,,,,,,,,,,,,,,,,,,,,,,,,,132.5,1.0,,,,,,
441,,iti,,html-keyboard-response,441,744933,0.0-1.0-87.0-0.0-5.0,0,0,61002,,,,,,,,,,,,,,,,,,,,,,,,,,,,,,,,,,,,,,133.5,1.0,,,,,,
442,,choice,,html-keyboard-response,442,746076,0.0-1.0-88.0-0.0-0.0,0,0,61002,,1137.0,,,75.0,86.0,87.0,1500.0,1000.0,0.0,2.0,0.0,20-60,,1.0,bowl,seashell,60.0,20.0,bowl12,seashell1,40.0,0.0,Abowl52.jpg,Aseashe34.jpg,/static/Category_learning/Stimuli/Experimental_stims/bowl/Abowl52.jpg,/static/Category_learning/Stimuli/Experimental_stims/seashell/Aseashe34.jpg,0.0,seashell,bowl,20.0,60.0,seashell1,bowl12,0.0,40.0,0.0,134.637,1.137,,,,,,
443,,confirmation,,html-keyboard-response,443,746444,0.0-1.0-88.0-0.0-1.0-0.0,0,0,61002,,,,,,86.0,,,,,,,,,,,,,,,,,,,,,,,,,,,,,,,,135.0,0.363,,,,,,
444,,isi,,html-keyboard-response,444,747949,0.0-1.0-88.0-0.0-2.0,0,0,61002,,,,,,,,,,,,,,,,,,,,,,,,,,,,,,,,,,,,,,136.5,1.5,,,,,,
445,,feedback,,html-keyboard-response,445,748953,0.0-1.0-88.0-0.0-3.0-0.0,0,0,61002,,,,,,86.0,,,,,,,,,,,,,,,,,,,,,,,,,,,,,,,,137.5,1.0,,,,,,
446,,iti,,html-keyboard-response,446,749958,0.0-1.0-88.0-0.0-5.0,0,0,61002,,,,,,,,,,,,,,,,,,,,,,,,,,,,,,,,,,,,,,138.5,1.0,,,,,,
447,,choice,,html-keyboard-response,447,751123,0.0-1.0-89.0-0.0-0.0,0,0,61002,,1161.0,,,75.0,87.0,88.0,1500.0,1000.0,0.0,2.0,0.0,40-60,,1.0,desk,watch,60.0,40.0,desk2,watch15,80.0,40.0,AA Luffield Radial crescent Desk 1600mm x 1200mm.jpg,20-171-6.jpg,/static/Category_learning/Stimuli/Experimental_stims/desk/AA Luffield Radial crescent Desk 1600mm x 1200mm.jpg,/static/Category_learning/Stimuli/Experimental_stims/watch/20-171-6.jpg,0.0,watch,desk,40.0,60.0,watch15,desk2,40.0,80.0,0.0,139.661,1.161,,,,,,
448,,confirmation,,html-keyboard-response,448,751468,0.0-1.0-89.0-0.0-1.0-0.0,0,0,61002,,,,,,87.0,,,,,,,,,,,,,,,,,,,,,,,,,,,,,,,,140.0,0.339,,,,,,
449,,isi,,html-keyboard-response,449,752971,0.0-1.0-89.0-0.0-2.0,0,0,61002,,,,,,,,,,,,,,,,,,,,,,,,,,,,,,,,,,,,,,141.5,1.5,,,,,,
450,,feedback,,html-keyboard-response,450,753976,0.0-1.0-89.0-0.0-3.0-0.0,0,0,61002,,,,,,87.0,,,,,,,,,,,,,,,,,,,,,,,,,,,,,,,,142.5,1.0,,,,,,
451,,iti,,html-keyboard-response,451,754981,0.0-1.0-89.0-0.0-5.0,0,0,61002,,,,,,,,,,,,,,,,,,,,,,,,,,,,,,,,,,,,,,143.5,1.0,,,,,,
452,,choice,,html-keyboard-response,452,756290,0.0-1.0-90.0-0.0-0.0,0,0,61002,,1304.0,,,68.0,88.0,89.0,1000.0,3000.0,0.0,2.0,1.0,60-60,1.0,,bongo,bongo,60.0,60.0,bongo12,bongo8,40.0,80.0,26686609.thl.jpg,26390661.thl.jpg,/static/Category_learning/Stimuli/Experimental_stims/bongo/26686609.thl.jpg,/static/Category_learning/Stimuli/Experimental_stims/bongo/26390661.thl.jpg,1.0,bongo,bongo,60.0,60.0,bongo12,bongo8,40.0,80.0,0.0,144.804,1.304,,,,,,
453,,confirmation,,html-keyboard-response,453,756492,0.0-1.0-90.0-0.0-1.0-0.0,0,0,61002,,,,,,88.0,,,,,,,,,,,,,,,,,,,,,,,,,,,,,,,,145.0,0.196,,,,,,
454,,isi,,html-keyboard-response,454,757496,0.0-1.0-90.0-0.0-2.0,0,0,61002,,,,,,,,,,,,,,,,,,,,,,,,,,,,,,,,,,,,,,146.0,1.0,,,,,,
455,,feedback,,html-keyboard-response,455,758501,0.0-1.0-90.0-0.0-3.0-0.0,0,0,61002,,,,,,88.0,,,,,,,,,,,,,,,,,,,,,,,,,,,,,,,,147.0,1.0,,,,,,
456,,iti,,html-keyboard-response,456,761506,0.0-1.0-90.0-0.0-5.0,0,0,61002,,,,,,,,,,,,,,,,,,,,,,,,,,,,,,,,,,,,,,150.0,3.0,,,,,,
457,,choice,,html-keyboard-response,457,762427,0.0-1.0-91.0-0.0-0.0,0,0,61002,,916.0,,,68.0,89.0,90.0,1000.0,1000.0,0.0,2.0,0.0,40-60,,0.0,tape,dresser,40.0,60.0,tape1,dresser2,20.0,80.0,aktotape_01.jpg,ADRESSE46.jpg,/static/Category_learning/Stimuli/Experimental_stims/tape/aktotape_01.jpg,/static/Category_learning/Stimuli/Experimental_stims/dresser/ADRESSE46.jpg,1.0,tape,dresser,40.0,60.0,tape1,dresser2,20.0,80.0,0.0,150.916,0.916,,,,,,
458,,confirmation,,html-keyboard-response,458,763015,0.0-1.0-91.0-0.0-1.0-0.0,0,0,61002,,,,,,89.0,,,,,,,,,,,,,,,,,,,,,,,,,,,,,,,,151.5,0.584,,,,,,
459,,isi,,html-keyboard-response,459,764020,0.0-1.0-91.0-0.0-2.0,0,0,61002,,,,,,,,,,,,,,,,,,,,,,,,,,,,,,,,,,,,,,152.5,1.0,,,,,,
460,,feedback,,html-keyboard-response,460,765024,0.0-1.0-91.0-0.0-3.0-0.0,0,0,61002,,,,,,89.0,,,,,,,,,,,,,,,,,,,,,,,,,,,,,,,,153.5,1.0,,,,,,
461,,iti,,html-keyboard-response,461,766029,0.0-1.0-91.0-0.0-5.0,0,0,61002,,,,,,,,,,,,,,,,,,,,,,,,,,,,,,,,,,,,,,154.5,1.0,,,,,,
462,,choice,,html-keyboard-response,462,766732,0.0-1.0-92.0-0.0-0.0,0,0,61002,,698.0,,,75.0,90.0,91.0,2000.0,1000.0,0.0,2.0,0.0,80-80,,,lipstick,frame,80.0,80.0,lipstick3,frame6,80.0,60.0,31sCvjMS3jL._SS500_.jpg,AFRAME123.jpg,/static/Category_learning/Stimuli/Experimental_stims/lipstick/31sCvjMS3jL._SS500_.jpg,/static/Category_learning/Stimuli/Experimental_stims/frame/AFRAME123.jpg,0.0,frame,lipstick,80.0,80.0,frame6,lipstick3,60.0,80.0,0.0,155.198,0.698,,,,,,
463,,confirmation,,html-keyboard-response,463,767541,0.0-1.0-92.0-0.0-1.0-0.0,0,0,61002,,,,,,90.0,,,,,,,,,,,,,,,,,,,,,,,,,,,,,,,,156.0,0.802,,,,,,
464,,isi,,html-keyboard-response,464,769545,0.0-1.0-92.0-0.0-2.0,0,0,61002,,,,,,,,,,,,,,,,,,,,,,,,,,,,,,,,,,,,,,158.0,2.0,,,,,,
465,,feedback,,html-keyboard-response,465,770551,0.0-1.0-92.0-0.0-3.0-0.0,0,0,61002,,,,,,90.0,,,,,,,,,,,,,,,,,,,,,,,,,,,,,,,,159.0,1.0,,,,,,
466,,iti,,html-keyboard-response,466,771557,0.0-1.0-92.0-0.0-5.0,0,0,61002,,,,,,,,,,,,,,,,,,,,,,,,,,,,,,,,,,,,,,160.0,1.0,,,,,,
467,,choice,,html-keyboard-response,467,772291,0.0-1.0-93.0-0.0-0.0,0,0,61002,,729.0,,,75.0,91.0,92.0,1500.0,1500.0,0.0,2.0,0.0,40-80,,0.0,yarn,hat,40.0,80.0,yarn9,hat9,60.0,100.0,Aballofyarn26.jpg,Astrawhat44.jpg,/static/Category_learning/Stimuli/Experimental_stims/yarn/Aballofyarn26.jpg,/static/Category_learning/Stimuli/Experimental_stims/hat/Astrawhat44.jpg,0.0,hat,yarn,80.0,40.0,hat9,yarn9,100.0,60.0,0.0,160.729,0.729,,,,,,
468,,confirmation,,html-keyboard-response,468,773068,0.0-1.0-93.0-0.0-1.0-0.0,0,0,61002,,,,,,91.0,,,,,,,,,,,,,,,,,,,,,,,,,,,,,,,,161.5,0.771,,,,,,
469,,isi,,html-keyboard-response,469,774573,0.0-1.0-93.0-0.0-2.0,0,0,61002,,,,,,,,,,,,,,,,,,,,,,,,,,,,,,,,,,,,,,163.0,1.5,,,,,,
470,,feedback,,html-keyboard-response,470,775577,0.0-1.0-93.0-0.0-3.0-0.0,0,0,61002,,,,,,91.0,,,,,,,,,,,,,,,,,,,,,,,,,,,,,,,,164.0,1.0,,,,,,
471,,iti,,html-keyboard-response,471,777082,0.0-1.0-93.0-0.0-5.0,0,0,61002,,,,,,,,,,,,,,,,,,,,,,,,,,,,,,,,,,,,,,165.5,1.5,,,,,,
472,,choice,,html-keyboard-response,472,777908,0.0-1.0-94.0-0.0-0.0,0,0,61002,,820.0,,,75.0,92.0,93.0,1000.0,1000.0,0.0,2.0,0.0,20-80,,0.0,power strip,motorcycle,20.0,80.0,power strip7,motorcycle13,20.0,80.0,412YZ25RFBL._AA262_.jpg,2005-Buell-FireboltXB12R.jpg,/static/Category_learning/Stimuli/Experimental_stims/power strip/412YZ25RFBL._AA262_.jpg,/static/Category_learning/Stimuli/Experimental_stims/motorcycle/2005-Buell-FireboltXB12R.jpg,0.0,motorcycle,power strip,80.0,20.0,motorcycle13,power strip7,80.0,20.0,0.0,166.32,0.82,,,,,,
473,,confirmation,,html-keyboard-response,473,778593,0.0-1.0-94.0-0.0-1.0-0.0,0,0,61002,,,,,,92.0,,,,,,,,,,,,,,,,,,,,,,,,,,,,,,,,167.0,0.68,,,,,,
474,,isi,,html-keyboard-response,474,779597,0.0-1.0-94.0-0.0-2.0,0,0,61002,,,,,,,,,,,,,,,,,,,,,,,,,,,,,,,,,,,,,,168.0,1.0,,,,,,
475,,feedback,,html-keyboard-response,475,780603,0.0-1.0-94.0-0.0-3.0-0.0,0,0,61002,,,,,,92.0,,,,,,,,,,,,,,,,,,,,,,,,,,,,,,,,169.0,1.0,,,,,,
476,,iti,,html-keyboard-response,476,781608,0.0-1.0-94.0-0.0-5.0,0,0,61002,,,,,,,,,,,,,,,,,,,,,,,,,,,,,,,,,,,,,,170.0,1.0,,,,,,
477,,choice,,html-keyboard-response,477,782507,0.0-1.0-95.0-0.0-0.0,0,0,61002,,894.0,,,68.0,93.0,94.0,1000.0,2000.0,0.0,2.0,0.0,40-80,,0.0,telescope,makeup compact,40.0,80.0,telescope9,makeup compact11,60.0,100.0,13TELESTAND.jpg,P190255_hero.jpg,/static/Category_learning/Stimuli/Experimental_stims/telescope/13TELESTAND.jpg,/static/Category_learning/Stimuli/Experimental_stims/makeup compact/P190255_hero.jpg,1.0,telescope,makeup compact,40.0,80.0,telescope9,makeup compact11,60.0,100.0,0.0,170.894,0.894,,,,,,
478,,confirmation,,html-keyboard-response,478,783120,0.0-1.0-95.0-0.0-1.0-0.0,0,0,61002,,,,,,93.0,,,,,,,,,,,,,,,,,,,,,,,,,,,,,,,,171.5,0.606,,,,,,
479,,isi,,html-keyboard-response,479,784124,0.0-1.0-95.0-0.0-2.0,0,0,61002,,,,,,,,,,,,,,,,,,,,,,,,,,,,,,,,,,,,,,172.5,1.0,,,,,,
480,,feedback,,html-keyboard-response,480,785130,0.0-1.0-95.0-0.0-3.0-0.0,0,0,61002,,,,,,93.0,,,,,,,,,,,,,,,,,,,,,,,,,,,,,,,,173.5,1.0,,,,,,
481,,iti,,html-keyboard-response,481,787134,0.0-1.0-95.0-0.0-5.0,0,0,61002,,,,,,,,,,,,,,,,,,,,,,,,,,,,,,,,,,,,,,175.5,2.0,,,,,,
482,,choice,,html-keyboard-response,482,788028,0.0-1.0-96.0-0.0-0.0,0,0,61002,,888.0,,,68.0,94.0,95.0,1000.0,1000.0,0.0,2.0,0.0,40-60,,1.0,door knob,tape,60.0,40.0,door knob5,tape7,60.0,60.0,Parth_Portofino_500.jpg,tape dispenser.jpg,/static/Category_learning/Stimuli/Experimental_stims/door knob/Parth_Portofino_500.jpg,/static/Category_learning/Stimuli/Experimental_stims/tape/tape dispenser.jpg,1.0,door knob,tape,60.0,40.0,door knob5,tape7,60.0,60.0,0.0,176.388,0.888,,,,,,
483,,confirmation,,html-keyboard-response,483,788647,0.0-1.0-96.0-0.0-1.0-0.0,0,0,61002,,,,,,94.0,,,,,,,,,,,,,,,,,,,,,,,,,,,,,,,,177.0,0.612,,,,,,
484,,isi,,html-keyboard-response,484,789650,0.0-1.0-96.0-0.0-2.0,0,0,61002,,,,,,,,,,,,,,,,,,,,,,,,,,,,,,,,,,,,,,178.0,1.0,,,,,,
485,,feedback,,html-keyboard-response,485,790654,0.0-1.0-96.0-0.0-3.0-0.0,0,0,61002,,,,,,94.0,,,,,,,,,,,,,,,,,,,,,,,,,,,,,,,,179.0,1.0,,,,,,
486,,iti,,html-keyboard-response,486,791658,0.0-1.0-96.0-0.0-5.0,0,0,61002,,,,,,,,,,,,,,,,,,,,,,,,,,,,,,,,,,,,,,180.0,1.0,,,,,,
487,,choice,,html-keyboard-response,487,792587,0.0-1.0-97.0-0.0-0.0,0,0,61002,,923.0,,,68.0,95.0,96.0,1500.0,1000.0,0.0,2.0,1.0,80-80,1.0,,key chain,key chain,80.0,80.0,key chain8,key chain5,100.0,60.0,Keychain01.jpg,keychain-metal-logo.jpg,/static/Category_learning/Stimuli/Experimental_stims/key chain/Keychain01.jpg,/static/Category_learning/Stimuli/Experimental_stims/key chain/keychain-metal-logo.jpg,1.0,key chain,key chain,80.0,80.0,key chain8,key chain5,100.0,60.0,0.0,180.923,0.923,,,,,,
