,success,ttype,start_time,trial_type,trial_index,time_elapsed,internal_node_id,warning,missed_checkup,PID,view_history,rt,responses,repeat_instructions,key_press,index,trial_num,isi,iti,is_practice,block,old_trial,pair_type,within_category,high_cat_on_left,left_category,right_category,left_category_value,right_category_value,left_exemplar,right_exemplar,left_exemplar_value,right_exemplar_value,left_img,right_img,left_img_path,right_img_path,left_chosen,chosen_category,unchosen_category,chosen_category_value,unchosen_category_value,chosen_exemplar,unchosen_exemplar,chosen_exemplar_value,unchosen_exemplar_value,no_response,onset,duration,end_practice,total_bonus_tally,category,category_group_value,category_value_response,did_not_enter_response
0,True,full_screen,d06032022hr1533,fullscreen,0,19869,0.0-0.0,0,0,27789,,,,,,,,,,,,,,,,,,,,,,,,,,,,,,,,,,,,,,,,,,,,,
1,,category_learning_instructions,,instructions,1,166122,0.0-1.0-0.0-0.0,0,0,27789,"[{""page_index"":0,""viewing_time"":13128},{""page_index"":1,""viewing_time"":30408},{""page_index"":2,""viewing_time"":20516},{""page_index"":3,""viewing_time"":28078},{""page_index"":4,""viewing_time"":27947},{""page_index"":5,""viewing_time"":20001},{""page_index"":6,""viewing_time"":6167}]",146247.0,,,,,,,,,,,,,,,,,,,,,,,,,,,,,,,,,,,,,,,,,,,
2,,category_learning_comprehension_check,,survey-multi-choice,2,191411,0.0-1.0-0.0-1.0,0,0,27789,,25276.0,"{""Q0"":""True"",""Q1"":""True"",""Q2"":""Stay the same"",""Q3"":""D for left and K for right""}",0.0,,,,,,,,,,,,,,,,,,,,,,,,,,,,,,,,,,,,,,,,,
3,,,,html-keyboard-response,3,196014,0.0-1.0-1.0,0,0,27789,,4594.0,,,68.0,,,,,,,,,,,,,,,,,,,,,,,,,,,,,,,,,,,,,,,,
4,,choice,,html-keyboard-response,4,197014,0.0-1.0-2.0-0.0-0.0,0,0,27789,,991.0,,,75.0,0.0,0.0,1500.0,1000.0,1.0,0.0,0.0,20-80,,0.0,bagel,dumbbell,20.0,80.0,bagel1,dumbbell1,0.0,80.0,bagels_pumpernickel_large.jpg,31B64EN68AL._AA280_.jpg,/static/Category_learning/Stimuli/Practice_stims/bagel/bagels_pumpernickel_large.jpg,/static/Category_learning/Stimuli/Practice_stims/dumbbell/31B64EN68AL._AA280_.jpg,0.0,dumbbell,bagel,80.0,20.0,dumbbell1,bagel1,80.0,0.0,0.0,0.991,0.991,,,,,,
5,,confirmation,,html-keyboard-response,5,197535,0.0-1.0-2.0-0.0-1.0-0.0,0,0,27789,,,,,,0.0,,,,,,,,,,,,,,,,,,,,,,,,,,,,,,,,1.5,0.509,,,,,,
6,,isi,,html-keyboard-response,6,199042,0.0-1.0-2.0-0.0-2.0,0,0,27789,,,,,,,,,,,,,,,,,,,,,,,,,,,,,,,,,,,,,,3.0,1.5,,,,,,
7,,feedback,,html-keyboard-response,7,200050,0.0-1.0-2.0-0.0-3.0-0.0,0,0,27789,,,,,,0.0,,,,,,,,,,,,,,,,,,,,,,,,,,,,,,,,4.0,1.0,,,,,,
8,,iti,,html-keyboard-response,8,201057,0.0-1.0-2.0-0.0-5.0,0,0,27789,,,,,,,,,,,,,,,,,,,,,,,,,,,,,,,,,,,,,,5.0,1.0,,,,,,
9,,choice,,html-keyboard-response,9,202212,0.0-1.0-3.0-0.0-0.0,0,0,27789,,1146.0,,,68.0,1.0,1.0,3000.0,1500.0,1.0,0.0,0.0,20-40,,1.0,calculator,bagel,40.0,20.0,calculator2,bagel2,20.0,20.0,22829064.thl.jpg,bagels_cinnraisin_large.jpg,/static/Category_learning/Stimuli/Practice_stims/calculator/22829064.thl.jpg,/static/Category_learning/Stimuli/Practice_stims/bagel/bagels_cinnraisin_large.jpg,1.0,calculator,bagel,40.0,20.0,calculator2,bagel2,20.0,20.0,0.0,6.146,1.146,,,,,,
10,,confirmation,,html-keyboard-response,10,202574,0.0-1.0-3.0-0.0-1.0-0.0,0,0,27789,,,,,,1.0,,,,,,,,,,,,,,,,,,,,,,,,,,,,,,,,6.5,0.354,,,,,,
11,,isi,,html-keyboard-response,11,205580,0.0-1.0-3.0-0.0-2.0,0,0,27789,,,,,,,,,,,,,,,,,,,,,,,,,,,,,,,,,,,,,,9.5,3.0,,,,,,
12,,feedback,,html-keyboard-response,12,206588,0.0-1.0-3.0-0.0-3.0-0.0,0,0,27789,,,,,,1.0,,,,,,,,,,,,,,,,,,,,,,,,,,,,,,,,10.5,1.0,,,,,,
13,,iti,,html-keyboard-response,13,208096,0.0-1.0-3.0-0.0-5.0,0,0,27789,,,,,,,,,,,,,,,,,,,,,,,,,,,,,,,,,,,,,,12.0,1.5,,,,,,
14,,choice,,html-keyboard-response,14,209318,0.0-1.0-4.0-0.0-0.0,0,0,27789,,1215.0,,,75.0,2.0,2.0,2000.0,3000.0,1.0,0.0,0.0,60-80,,0.0,clock,dumbbell,60.0,80.0,clock2,dumbbell2,60.0,100.0,26373355.thl.jpg,31K8MR6TMBL._SS500_.jpg,/static/Category_learning/Stimuli/Practice_stims/clock/26373355.thl.jpg,/static/Category_learning/Stimuli/Practice_stims/dumbbell/31K8MR6TMBL._SS500_.jpg,0.0,dumbbell,clock,80.0,60.0,dumbbell2,clock2,100.0,60.0,0.0,13.215,1.215,,,,,,
15,,confirmation,,html-keyboard-response,15,209614,0.0-1.0-4.0-0.0-1.0-0.0,0,0,27789,,,,,,2.0,,,,,,,,,,,,,,,,,,,,,,,,,,,,,,,,13.5,0.285,,,,,,
16,,isi,,html-keyboard-response,16,211620,0.0-1.0-4.0-0.0-2.0,0,0,27789,,,,,,,,,,,,,,,,,,,,,,,,,,,,,,,,,,,,,,15.5,2.0,,,,,,
17,,feedback,,html-keyboard-response,17,212628,0.0-1.0-4.0-0.0-3.0-0.0,0,0,27789,,,,,,2.0,,,,,,,,,,,,,,,,,,,,,,,,,,,,,,,,16.5,1.0,,,,,,
18,,iti,,html-keyboard-response,18,215636,0.0-1.0-4.0-0.0-5.0,0,0,27789,,,,,,,,,,,,,,,,,,,,,,,,,,,,,,,,,,,,,,19.5,3.0,,,,,,
19,,choice,,html-keyboard-response,19,216967,0.0-1.0-5.0-0.0-0.0,0,0,27789,,1321.0,,,75.0,3.0,3.0,1000.0,2000.0,1.0,0.0,0.0,40-80,,0.0,calculator,clock,40.0,60.0,calculator1,clock1,40.0,40.0,22829184.thl.jpg,Aalarmclock2.jpg,/static/Category_learning/Stimuli/Practice_stims/calculator/22829184.thl.jpg,/static/Category_learning/Stimuli/Practice_stims/clock/Aalarmclock2.jpg,0.0,clock,calculator,60.0,40.0,clock1,calculator1,40.0,40.0,0.0,20.821,1.321,,,,,,
20,,confirmation,,html-keyboard-response,20,217154,0.0-1.0-5.0-0.0-1.0-0.0,0,0,27789,,,,,,3.0,,,,,,,,,,,,,,,,,,,,,,,,,,,,,,,,21.0,0.179,,,,,,
21,,isi,,html-keyboard-response,21,218162,0.0-1.0-5.0-0.0-2.0,0,0,27789,,,,,,,,,,,,,,,,,,,,,,,,,,,,,,,,,,,,,,22.0,1.0,,,,,,
22,,feedback,,html-keyboard-response,22,219170,0.0-1.0-5.0-0.0-3.0-0.0,0,0,27789,,,,,,3.0,,,,,,,,,,,,,,,,,,,,,,,,,,,,,,,,23.0,1.0,,,,,,
23,,iti,,html-keyboard-response,23,221175,0.0-1.0-5.0-0.0-5.0,0,0,27789,,,,,,,,,,,,,,,,,,,,,,,,,,,,,,,,,,,,,,25.0,2.0,,,,,,
24,,choice,,html-keyboard-response,24,221997,0.0-1.0-6.0-0.0-0.0,0,0,27789,,814.0,,,68.0,4.0,4.0,2500.0,2500.0,1.0,0.0,0.0,20-60,,1.0,dumbbell,bagel,80.0,20.0,dumbbell3,bagel3,100.0,40.0,41K7QVRX50L._SS500_.jpg,photo-169.jpg,/static/Category_learning/Stimuli/Practice_stims/dumbbell/41K7QVRX50L._SS500_.jpg,/static/Category_learning/Stimuli/Practice_stims/bagel/photo-169.jpg,1.0,dumbbell,bagel,80.0,20.0,dumbbell3,bagel3,100.0,40.0,0.0,25.814,0.814,1.0,,,,,
25,,confirmation,,html-keyboard-response,25,222690,0.0-1.0-6.0-0.0-1.0-0.0,0,0,27789,,,,,,4.0,,,,,,,,,,,,,,,,,,,,,,,,,,,,,,,,26.5,0.686,,,,,,
26,,isi,,html-keyboard-response,26,225196,0.0-1.0-6.0-0.0-2.0,0,0,27789,,,,,,,,,,,,,,,,,,,,,,,,,,,,,,,,,,,,,,29.0,2.5,,,,,,
27,,feedback,,html-keyboard-response,27,226205,0.0-1.0-6.0-0.0-3.0-0.0,0,0,27789,,,,,,4.0,,,,,,,,,,,,,,,,,,,,,,,,,,,,,,,,30.0,1.0,,,,,,
28,,iti,,html-keyboard-response,28,228711,0.0-1.0-6.0-0.0-5.0,0,0,27789,,,,,,,,,,,,,,,,,,,,,,,,,,,,,,,,,,,,,,32.5,2.5,,,,,,
29,,practice_over,,html-keyboard-response,29,242033,0.0-1.0-6.0-0.0-6.0-0.0,0,0,27789,,13317.0,,,68.0,4.0,,,,,,,,,,,,,,,,,,,,,,,,,,,,,,,,,,,,,,,
30,,start_run,,html-keyboard-response,30,344580,0.0-1.0-6.0-0.0-6.0-1.0,0,0,27789,,102541.0,,,84.0,,,,,,,,,,,,,,,,,,,,,,,,,,,,,,,,,,,,,,,,
31,,choice,,html-keyboard-response,31,345380,0.0-1.0-7.0-0.0-0.0,0,0,27789,,791.0,,,68.0,5.0,5.0,1000.0,1500.0,0.0,1.0,0.0,40-40,,,door knob,desk,40.0,40.0,door knob15,desk9,60.0,20.0,Legacy_oval.jpg,desk 189dr96dr chr.jpg,/static/Category_learning/Stimuli/Experimental_stims/door knob/Legacy_oval.jpg,/static/Category_learning/Stimuli/Experimental_stims/desk/desk 189dr96dr chr.jpg,1.0,door knob,desk,40.0,40.0,door knob15,desk9,60.0,20.0,0.0,0.791,0.791,,,,,,
32,,confirmation,,html-keyboard-response,32,346098,0.0-1.0-7.0-0.0-1.0-0.0,0,0,27789,,,,,,5.0,,,,,,,,,,,,,,,,,,,,,,,,,,,,,,,,1.5,0.709,,,,,,
33,,isi,,html-keyboard-response,33,347110,0.0-1.0-7.0-0.0-2.0,0,0,27789,,,,,,,,,,,,,,,,,,,,,,,,,,,,,,,,,,,,,,2.5,1.0,,,,,,
34,,feedback,,html-keyboard-response,34,348117,0.0-1.0-7.0-0.0-3.0-0.0,0,0,27789,,,,,,5.0,,,,,,,,,,,,,,,,,,,,,,,,,,,,,,,,3.5,1.0,,,,,,
35,,iti,,html-keyboard-response,35,349626,0.0-1.0-7.0-0.0-5.0,0,0,27789,,,,,,,,,,,,,,,,,,,,,,,,,,,,,,,,,,,,,,5.0,1.5,,,,,,
36,,choice,,html-keyboard-response,36,350808,0.0-1.0-8.0-0.0-0.0,0,0,27789,,1175.0,,,68.0,6.0,6.0,1500.0,2000.0,0.0,1.0,0.0,40-80,,1.0,pen,door knob,80.0,40.0,pen12,door knob7,100.0,20.0,pen02.jpg,doorknob2.jpg,/static/Category_learning/Stimuli/Experimental_stims/pen/pen02.jpg,/static/Category_learning/Stimuli/Experimental_stims/door knob/doorknob2.jpg,1.0,pen,door knob,80.0,40.0,pen12,door knob7,100.0,20.0,0.0,6.175,1.175,,,,,,
37,,confirmation,,html-keyboard-response,37,351141,0.0-1.0-8.0-0.0-1.0-0.0,0,0,27789,,,,,,6.0,,,,,,,,,,,,,,,,,,,,,,,,,,,,,,,,6.5,0.325,,,,,,
38,,isi,,html-keyboard-response,38,352649,0.0-1.0-8.0-0.0-2.0,0,0,27789,,,,,,,,,,,,,,,,,,,,,,,,,,,,,,,,,,,,,,8.0,1.5,,,,,,
39,,feedback,,html-keyboard-response,39,353657,0.0-1.0-8.0-0.0-3.0-0.0,0,0,27789,,,,,,6.0,,,,,,,,,,,,,,,,,,,,,,,,,,,,,,,,9.0,1.0,,,,,,
40,,iti,,html-keyboard-response,40,355664,0.0-1.0-8.0-0.0-5.0,0,0,27789,,,,,,,,,,,,,,,,,,,,,,,,,,,,,,,,,,,,,,11.0,2.0,,,,,,
41,,choice,,html-keyboard-response,41,356503,0.0-1.0-9.0-0.0-0.0,0,0,27789,,831.0,,,75.0,7.0,7.0,1000.0,1500.0,0.0,1.0,0.0,80-80,,,seashell,pen,80.0,80.0,seashell3,pen3,80.0,80.0,coquillage.jpg,pen08.jpg,/static/Category_learning/Stimuli/Experimental_stims/seashell/coquillage.jpg,/static/Category_learning/Stimuli/Experimental_stims/pen/pen08.jpg,0.0,pen,seashell,80.0,80.0,pen3,seashell3,80.0,80.0,0.0,11.831,0.831,,,,,,
42,,confirmation,,html-keyboard-response,42,357180,0.0-1.0-9.0-0.0-1.0-0.0,0,0,27789,,,,,,7.0,,,,,,,,,,,,,,,,,,,,,,,,,,,,,,,,12.5,0.669,,,,,,
43,,isi,,html-keyboard-response,43,358188,0.0-1.0-9.0-0.0-2.0,0,0,27789,,,,,,,,,,,,,,,,,,,,,,,,,,,,,,,,,,,,,,13.5,1.0,,,,,,
44,,feedback,,html-keyboard-response,44,359196,0.0-1.0-9.0-0.0-3.0-0.0,0,0,27789,,,,,,7.0,,,,,,,,,,,,,,,,,,,,,,,,,,,,,,,,14.5,1.0,,,,,,
45,,iti,,html-keyboard-response,45,360703,0.0-1.0-9.0-0.0-5.0,0,0,27789,,,,,,,,,,,,,,,,,,,,,,,,,,,,,,,,,,,,,,16.0,1.5,,,,,,
46,,choice,,html-keyboard-response,46,361960,0.0-1.0-10.0-0.0-0.0,0,0,27789,,1249.0,,,75.0,8.0,8.0,1000.0,2000.0,0.0,1.0,0.0,60-60,,,lipstick,key chain,60.0,60.0,lipstick10,key chain1,60.0,80.0,21K0D7QKFAL._SS500_.jpg,jm05s16.jpg,/static/Category_learning/Stimuli/Experimental_stims/lipstick/21K0D7QKFAL._SS500_.jpg,/static/Category_learning/Stimuli/Experimental_stims/key chain/jm05s16.jpg,0.0,key chain,lipstick,60.0,60.0,key chain1,lipstick10,80.0,60.0,0.0,17.249,1.249,,,,,,
47,,confirmation,,html-keyboard-response,47,362220,0.0-1.0-10.0-0.0-1.0-0.0,0,0,27789,,,,,,8.0,,,,,,,,,,,,,,,,,,,,,,,,,,,,,,,,17.5,0.251,,,,,,
48,,isi,,html-keyboard-response,48,363228,0.0-1.0-10.0-0.0-2.0,0,0,27789,,,,,,,,,,,,,,,,,,,,,,,,,,,,,,,,,,,,,,18.5,1.0,,,,,,
49,,feedback,,html-keyboard-response,49,364239,0.0-1.0-10.0-0.0-3.0-0.0,0,0,27789,,,,,,8.0,,,,,,,,,,,,,,,,,,,,,,,,,,,,,,,,19.5,1.0,,,,,,
50,,iti,,html-keyboard-response,50,366247,0.0-1.0-10.0-0.0-5.0,0,0,27789,,,,,,,,,,,,,,,,,,,,,,,,,,,,,,,,,,,,,,21.5,2.0,,,,,,
51,,choice,,html-keyboard-response,51,367439,0.0-1.0-11.0-0.0-0.0,0,0,27789,,1184.0,,,75.0,9.0,9.0,3000.0,1500.0,0.0,1.0,0.0,60-80,,0.0,makeup compact,patio lounge chair,60.0,80.0,makeup compact4,patio lounge chair15,40.0,60.0,262668_fpx.jpg,phpThumb.jpg,/static/Category_learning/Stimuli/Experimental_stims/makeup compact/262668_fpx.jpg,/static/Category_learning/Stimuli/Experimental_stims/patio lounge chair/phpThumb.jpg,0.0,patio lounge chair,makeup compact,80.0,60.0,patio lounge chair15,makeup compact4,60.0,40.0,0.0,22.684,1.184,,,,,,
52,,confirmation,,html-keyboard-response,52,367764,0.0-1.0-11.0-0.0-1.0-0.0,0,0,27789,,,,,,9.0,,,,,,,,,,,,,,,,,,,,,,,,,,,,,,,,23.0,0.316,,,,,,
53,,isi,,html-keyboard-response,53,370771,0.0-1.0-11.0-0.0-2.0,0,0,27789,,,,,,,,,,,,,,,,,,,,,,,,,,,,,,,,,,,,,,26.0,3.0,,,,,,
54,,feedback,,html-keyboard-response,54,371778,0.0-1.0-11.0-0.0-3.0-0.0,0,0,27789,,,,,,9.0,,,,,,,,,,,,,,,,,,,,,,,,,,,,,,,,27.0,1.0,,,,,,
55,,iti,,html-keyboard-response,55,373285,0.0-1.0-11.0-0.0-5.0,0,0,27789,,,,,,,,,,,,,,,,,,,,,,,,,,,,,,,,,,,,,,28.5,1.5,,,,,,
56,,choice,,html-keyboard-response,56,374306,0.0-1.0-12.0-0.0-0.0,0,0,27789,,1011.0,,,75.0,10.0,10.0,2000.0,1500.0,0.0,1.0,1.0,80-80,1.0,,pen,pen,80.0,80.0,pen12,pen3,100.0,80.0,pen02.jpg,pen08.jpg,/static/Category_learning/Stimuli/Experimental_stims/pen/pen02.jpg,/static/Category_learning/Stimuli/Experimental_stims/pen/pen08.jpg,0.0,pen,pen,80.0,80.0,pen3,pen12,80.0,100.0,0.0,29.511,1.011,,,,,,
57,,confirmation,,html-keyboard-response,57,374804,0.0-1.0-12.0-0.0-1.0-0.0,0,0,27789,,,,,,10.0,,,,,,,,,,,,,,,,,,,,,,,,,,,,,,,,30.0,0.489,,,,,,
58,,isi,,html-keyboard-response,58,376812,0.0-1.0-12.0-0.0-2.0,0,0,27789,,,,,,,,,,,,,,,,,,,,,,,,,,,,,,,,,,,,,,32.0,2.0,,,,,,
59,,feedback,,html-keyboard-response,59,377819,0.0-1.0-12.0-0.0-3.0-0.0,0,0,27789,,,,,,10.0,,,,,,,,,,,,,,,,,,,,,,,,,,,,,,,,33.0,1.0,,,,,,
60,,iti,,html-keyboard-response,60,379327,0.0-1.0-12.0-0.0-5.0,0,0,27789,,,,,,,,,,,,,,,,,,,,,,,,,,,,,,,,,,,,,,34.5,1.5,,,,,,
61,,choice,,html-keyboard-response,61,380565,0.0-1.0-13.0-0.0-0.0,0,0,27789,,1231.0,,,75.0,11.0,11.0,3500.0,1000.0,0.0,1.0,0.0,40-40,,,bongo,flashlight,40.0,40.0,bongo3,flashlight5,60.0,60.0,26390697.thl.jpg,Streamlight-71001-Jr-Flashlight-W-batteries-black-B00018A3CG-L.jpg,/static/Category_learning/Stimuli/Experimental_stims/bongo/26390697.thl.jpg,/static/Category_learning/Stimuli/Experimental_stims/flashlight/Streamlight-71001-Jr-Flashlight-W-batteries-black-B00018A3CG-L.jpg,0.0,flashlight,bongo,40.0,40.0,flashlight5,bongo3,60.0,60.0,0.0,35.731,1.231,,,,,,
62,,confirmation,,html-keyboard-response,62,380843,0.0-1.0-13.0-0.0-1.0-0.0,0,0,27789,,,,,,11.0,,,,,,,,,,,,,,,,,,,,,,,,,,,,,,,,36.0,0.269,,,,,,
63,,isi,,html-keyboard-response,63,384350,0.0-1.0-13.0-0.0-2.0,0,0,27789,,,,,,,,,,,,,,,,,,,,,,,,,,,,,,,,,,,,,,39.5,3.5,,,,,,
64,,feedback,,html-keyboard-response,64,385357,0.0-1.0-13.0-0.0-3.0-0.0,0,0,27789,,,,,,11.0,,,,,,,,,,,,,,,,,,,,,,,,,,,,,,,,40.5,1.0,,,,,,
65,,iti,,html-keyboard-response,65,386365,0.0-1.0-13.0-0.0-5.0,0,0,27789,,,,,,,,,,,,,,,,,,,,,,,,,,,,,,,,,,,,,,41.5,1.0,,,,,,
66,,choice,,html-keyboard-response,66,387885,0.0-1.0-14.0-0.0-0.0,0,0,27789,,,,,,12.0,12.0,1500.0,1000.0,0.0,1.0,1.0,40-60,0.0,,door knob,key chain,40.0,60.0,door knob15,key chain1,60.0,80.0,Legacy_oval.jpg,jm05s16.jpg,/static/Category_learning/Stimuli/Experimental_stims/door knob/Legacy_oval.jpg,/static/Category_learning/Stimuli/Experimental_stims/key chain/jm05s16.jpg,,,,,,,,,,1.0,43.0,1.5,,,,,,
67,,isi,,html-keyboard-response,67,389393,0.0-1.0-14.0-0.0-2.0,0,0,27789,,,,,,,,,,,,,,,,,,,,,,,,,,,,,,,,,,,,,,44.5,1.5,,,,,,
68,,no_response,,html-keyboard-response,68,390400,0.0-1.0-14.0-0.0-4.0-0.0,0,0,27789,,,,,,,,,,,,,,,,,,,,,,,,,,,,,,,,,,,,,,45.5,1.0,,,,,,
69,,iti,,html-keyboard-response,69,391449,0.0-1.0-14.0-0.0-5.0,0,0,27789,,,,,,,,,,,,,,,,,,,,,,,,,,,,,,,,,,,,,,46.5,1.0,,,,,,
70,,choice,,html-keyboard-response,70,392416,0.0-1.0-14.0-0.1-0.1,0,0,27789,,959.0,,,68.0,12.0,12.0,1500.0,1000.0,0.0,1.0,1.0,40-60,0.0,,door knob,key chain,40.0,60.0,door knob15,key chain1,60.0,80.0,Legacy_oval.jpg,jm05s16.jpg,/static/Category_learning/Stimuli/Experimental_stims/door knob/Legacy_oval.jpg,/static/Category_learning/Stimuli/Experimental_stims/key chain/jm05s16.jpg,1.0,door knob,key chain,40.0,60.0,door knob15,key chain1,60.0,80.0,0.0,47.459,0.959,,,,,,
71,,confirmation,,html-keyboard-response,71,392966,0.0-1.0-14.0-0.1-1.1-0.1,0,0,27789,,,,,,12.0,,,,,,,,,,,,,,,,,,,,,,,,,,,,,,,,48.0,0.541,,,,,,
72,,isi,,html-keyboard-response,72,393975,0.0-1.0-14.0-0.1-2.1,0,0,27789,,,,,,,,,,,,,,,,,,,,,,,,,,,,,,,,,,,,,,49.0,1.0,,,,,,
73,,feedback,,html-keyboard-response,73,394983,0.0-1.0-14.0-0.1-3.1-0.1,0,0,27789,,,,,,12.0,,,,,,,,,,,,,,,,,,,,,,,,,,,,,,,,50.0,1.0,,,,,,
74,,iti,,html-keyboard-response,74,396490,0.0-1.0-14.0-0.1-5.1,0,0,27789,,,,,,,,,,,,,,,,,,,,,,,,,,,,,,,,,,,,,,51.5,1.5,,,,,,
75,,choice,,html-keyboard-response,75,397627,0.0-1.0-15.0-0.0-0.0,0,0,27789,,1130.0,,,75.0,13.0,13.0,2000.0,1000.0,0.0,1.0,0.0,40-60,,0.0,desk,hammer,40.0,60.0,desk8,hammer2,60.0,40.0,26370118.thl.jpg,hammer04.jpg,/static/Category_learning/Stimuli/Experimental_stims/desk/26370118.thl.jpg,/static/Category_learning/Stimuli/Experimental_stims/hammer/hammer04.jpg,0.0,hammer,desk,60.0,40.0,hammer2,desk8,40.0,60.0,0.0,52.63,1.13,,,,,,
76,,confirmation,,html-keyboard-response,76,398006,0.0-1.0-15.0-0.0-1.0-0.0,0,0,27789,,,,,,13.0,,,,,,,,,,,,,,,,,,,,,,,,,,,,,,,,53.0,0.37,,,,,,
77,,isi,,html-keyboard-response,77,400015,0.0-1.0-15.0-0.0-2.0,0,0,27789,,,,,,,,,,,,,,,,,,,,,,,,,,,,,,,,,,,,,,55.0,2.0,,,,,,
78,,feedback,,html-keyboard-response,78,401024,0.0-1.0-15.0-0.0-3.0-0.0,0,0,27789,,,,,,13.0,,,,,,,,,,,,,,,,,,,,,,,,,,,,,,,,56.0,1.0,,,,,,
79,,iti,,html-keyboard-response,79,402032,0.0-1.0-15.0-0.0-5.0,0,0,27789,,,,,,,,,,,,,,,,,,,,,,,,,,,,,,,,,,,,,,57.0,1.0,,,,,,
80,,choice,,html-keyboard-response,80,403093,0.0-1.0-16.0-0.0-0.0,0,0,27789,,1054.0,,,75.0,14.0,14.0,2000.0,2000.0,0.0,1.0,0.0,60-60,,,license plate,hammer,60.0,60.0,license plate2,hammer5,60.0,60.0,ny-u93-8zs.jpg,hammer02.jpg,/static/Category_learning/Stimuli/Experimental_stims/license plate/ny-u93-8zs.jpg,/static/Category_learning/Stimuli/Experimental_stims/hammer/hammer02.jpg,0.0,hammer,license plate,60.0,60.0,hammer5,license plate2,60.0,60.0,0.0,58.054,1.054,,,,,,
81,,confirmation,,html-keyboard-response,81,403549,0.0-1.0-16.0-0.0-1.0-0.0,0,0,27789,,,,,,14.0,,,,,,,,,,,,,,,,,,,,,,,,,,,,,,,,58.5,0.446,,,,,,
82,,isi,,html-keyboard-response,82,405556,0.0-1.0-16.0-0.0-2.0,0,0,27789,,,,,,,,,,,,,,,,,,,,,,,,,,,,,,,,,,,,,,60.5,2.0,,,,,,
83,,feedback,,html-keyboard-response,83,406565,0.0-1.0-16.0-0.0-3.0-0.0,0,0,27789,,,,,,14.0,,,,,,,,,,,,,,,,,,,,,,,,,,,,,,,,61.5,1.0,,,,,,
84,,iti,,html-keyboard-response,84,408573,0.0-1.0-16.0-0.0-5.0,0,0,27789,,,,,,,,,,,,,,,,,,,,,,,,,,,,,,,,,,,,,,63.5,2.0,,,,,,
85,,choice,,html-keyboard-response,85,409479,0.0-1.0-17.0-0.0-0.0,0,0,27789,,898.0,,,68.0,15.0,15.0,1500.0,2000.0,0.0,1.0,0.0,20-20,,,train,tape,20.0,20.0,train9,tape13,20.0,20.0,train2.jpg,920152.jpg,/static/Category_learning/Stimuli/Experimental_stims/train/train2.jpg,/static/Category_learning/Stimuli/Experimental_stims/tape/920152.jpg,1.0,train,tape,20.0,20.0,train9,tape13,20.0,20.0,0.0,64.398,0.898,,,,,,
86,,confirmation,,html-keyboard-response,86,410090,0.0-1.0-17.0-0.0-1.0-0.0,0,0,27789,,,,,,15.0,,,,,,,,,,,,,,,,,,,,,,,,,,,,,,,,65.0,0.602,,,,,,
87,,isi,,html-keyboard-response,87,411598,0.0-1.0-17.0-0.0-2.0,0,0,27789,,,,,,,,,,,,,,,,,,,,,,,,,,,,,,,,,,,,,,66.5,1.5,,,,,,
88,,feedback,,html-keyboard-response,88,412607,0.0-1.0-17.0-0.0-3.0-0.0,0,0,27789,,,,,,15.0,,,,,,,,,,,,,,,,,,,,,,,,,,,,,,,,67.5,1.0,,,,,,
89,,iti,,html-keyboard-response,89,414616,0.0-1.0-17.0-0.0-5.0,0,0,27789,,,,,,,,,,,,,,,,,,,,,,,,,,,,,,,,,,,,,,69.5,2.0,,,,,,
90,,choice,,html-keyboard-response,90,416118,0.0-1.0-18.0-0.0-0.0,0,0,27789,,1495.0,,,68.0,16.0,16.0,1500.0,2000.0,0.0,1.0,0.0,20-40,,0.0,trumpet,bongo,20.0,40.0,trumpet10,bongo14,40.0,40.0,trumpet2.jpg,26390667.thl.jpg,/static/Category_learning/Stimuli/Experimental_stims/trumpet/trumpet2.jpg,/static/Category_learning/Stimuli/Experimental_stims/bongo/26390667.thl.jpg,1.0,trumpet,bongo,20.0,40.0,trumpet10,bongo14,40.0,40.0,0.0,70.995,1.495,,,,,,
91,,confirmation,,html-keyboard-response,91,416134,0.0-1.0-18.0-0.0-1.0-0.0,0,0,27789,,,,,,16.0,,,,,,,,,,,,,,,,,,,,,,,,,,,,,,,,71.0,0.005,,,,,,
92,,isi,,html-keyboard-response,92,417642,0.0-1.0-18.0-0.0-2.0,0,0,27789,,,,,,,,,,,,,,,,,,,,,,,,,,,,,,,,,,,,,,72.5,1.5,,,,,,
93,,feedback,,html-keyboard-response,93,418650,0.0-1.0-18.0-0.0-3.0-0.0,0,0,27789,,,,,,16.0,,,,,,,,,,,,,,,,,,,,,,,,,,,,,,,,73.5,1.0,,,,,,
94,,iti,,html-keyboard-response,94,420660,0.0-1.0-18.0-0.0-5.0,0,0,27789,,,,,,,,,,,,,,,,,,,,,,,,,,,,,,,,,,,,,,75.5,2.0,,,,,,
95,,choice,,html-keyboard-response,95,421767,0.0-1.0-19.0-0.0-0.0,0,0,27789,,1099.0,,,68.0,17.0,17.0,2000.0,3500.0,0.0,1.0,0.0,20-60,,0.0,trumpet,lipstick,20.0,60.0,trumpet1,lipstick4,40.0,60.0,JUPITER+TROMPETTE+606MRL.JPG,P145703_hero.jpg,/static/Category_learning/Stimuli/Experimental_stims/trumpet/JUPITER+TROMPETTE+606MRL.JPG,/static/Category_learning/Stimuli/Experimental_stims/lipstick/P145703_hero.jpg,1.0,trumpet,lipstick,20.0,60.0,trumpet1,lipstick4,40.0,60.0,0.0,76.599,1.099,,,,,,
96,,confirmation,,html-keyboard-response,96,422179,0.0-1.0-19.0-0.0-1.0-0.0,0,0,27789,,,,,,17.0,,,,,,,,,,,,,,,,,,,,,,,,,,,,,,,,77.0,0.401,,,,,,
97,,isi,,html-keyboard-response,97,424188,0.0-1.0-19.0-0.0-2.0,0,0,27789,,,,,,,,,,,,,,,,,,,,,,,,,,,,,,,,,,,,,,79.0,2.0,,,,,,
98,,feedback,,html-keyboard-response,98,425197,0.0-1.0-19.0-0.0-3.0-0.0,0,0,27789,,,,,,17.0,,,,,,,,,,,,,,,,,,,,,,,,,,,,,,,,80.0,1.0,,,,,,
99,,iti,,html-keyboard-response,99,428705,0.0-1.0-19.0-0.0-5.0,0,0,27789,,,,,,,,,,,,,,,,,,,,,,,,,,,,,,,,,,,,,,83.5,3.5,,,,,,
100,,choice,,html-keyboard-response,100,429513,0.0-1.0-20.0-0.0-0.0,0,0,27789,,798.0,,,75.0,18.0,18.0,1500.0,2000.0,0.0,1.0,1.0,60-60,1.0,,hammer,hammer,60.0,60.0,hammer2,hammer5,40.0,60.0,hammer04.jpg,hammer02.jpg,/static/Category_learning/Stimuli/Experimental_stims/hammer/hammer04.jpg,/static/Category_learning/Stimuli/Experimental_stims/hammer/hammer02.jpg,0.0,hammer,hammer,60.0,60.0,hammer5,hammer2,60.0,40.0,0.0,84.298,0.798,,,,,,
101,,confirmation,,html-keyboard-response,101,430225,0.0-1.0-20.0-0.0-1.0-0.0,0,0,27789,,,,,,18.0,,,,,,,,,,,,,,,,,,,,,,,,,,,,,,,,85.0,0.702,,,,,,
102,,isi,,html-keyboard-response,102,431734,0.0-1.0-20.0-0.0-2.0,0,0,27789,,,,,,,,,,,,,,,,,,,,,,,,,,,,,,,,,,,,,,86.5,1.5,,,,,,
103,,feedback,,html-keyboard-response,103,432743,0.0-1.0-20.0-0.0-3.0-0.0,0,0,27789,,,,,,18.0,,,,,,,,,,,,,,,,,,,,,,,,,,,,,,,,87.5,1.0,,,,,,
104,,iti,,html-keyboard-response,104,434750,0.0-1.0-20.0-0.0-5.0,0,0,27789,,,,,,,,,,,,,,,,,,,,,,,,,,,,,,,,,,,,,,89.5,2.0,,,,,,
105,,choice,,html-keyboard-response,105,435538,0.0-1.0-21.0-0.0-0.0,0,0,27789,,780.0,,,68.0,19.0,19.0,1500.0,1000.0,0.0,1.0,0.0,20-60,,0.0,train,motorcycle,20.0,60.0,train6,motorcycle10,0.0,40.0,train9.jpg,motorcycle17.jpg,/static/Category_learning/Stimuli/Experimental_stims/train/train9.jpg,/static/Category_learning/Stimuli/Experimental_stims/motorcycle/motorcycle17.jpg,1.0,train,motorcycle,20.0,60.0,train6,motorcycle10,0.0,40.0,0.0,90.28,0.78,,,,,,
106,,confirmation,,html-keyboard-response,106,436268,0.0-1.0-21.0-0.0-1.0-0.0,0,0,27789,,,,,,19.0,,,,,,,,,,,,,,,,,,,,,,,,,,,,,,,,91.0,0.72,,,,,,
107,,isi,,html-keyboard-response,107,437785,0.0-1.0-21.0-0.0-2.0,0,0,27789,,,,,,,,,,,,,,,,,,,,,,,,,,,,,,,,,,,,,,92.5,1.5,,,,,,
108,,feedback,,html-keyboard-response,108,438794,0.0-1.0-21.0-0.0-3.0-0.0,0,0,27789,,,,,,19.0,,,,,,,,,,,,,,,,,,,,,,,,,,,,,,,,93.5,1.0,,,,,,
109,,iti,,html-keyboard-response,109,439802,0.0-1.0-21.0-0.0-5.0,0,0,27789,,,,,,,,,,,,,,,,,,,,,,,,,,,,,,,,,,,,,,94.5,1.0,,,,,,
110,,choice,,html-keyboard-response,110,440855,0.0-1.0-22.0-0.0-0.0,0,0,27789,,1045.0,,,75.0,20.0,20.0,1000.0,3000.0,0.0,1.0,0.0,40-60,,0.0,dresser,license plate,40.0,60.0,dresser9,license plate9,20.0,80.0,ADRESSER.jpg,nm-dhg089.jpg,/static/Category_learning/Stimuli/Experimental_stims/dresser/ADRESSER.jpg,/static/Category_learning/Stimuli/Experimental_stims/license plate/nm-dhg089.jpg,0.0,license plate,dresser,60.0,40.0,license plate9,dresser9,80.0,20.0,0.0,95.545,1.045,,,,,,
111,,confirmation,,html-keyboard-response,111,441319,0.0-1.0-22.0-0.0-1.0-0.0,0,0,27789,,,,,,20.0,,,,,,,,,,,,,,,,,,,,,,,,,,,,,,,,96.0,0.455,,,,,,
112,,isi,,html-keyboard-response,112,442328,0.0-1.0-22.0-0.0-2.0,0,0,27789,,,,,,,,,,,,,,,,,,,,,,,,,,,,,,,,,,,,,,97.0,1.0,,,,,,
113,,feedback,,html-keyboard-response,113,443336,0.0-1.0-22.0-0.0-3.0-0.0,0,0,27789,,,,,,20.0,,,,,,,,,,,,,,,,,,,,,,,,,,,,,,,,98.0,1.0,,,,,,
114,,iti,,html-keyboard-response,114,446344,0.0-1.0-22.0-0.0-5.0,0,0,27789,,,,,,,,,,,,,,,,,,,,,,,,,,,,,,,,,,,,,,101.0,3.0,,,,,,
115,,choice,,html-keyboard-response,115,447729,0.0-1.0-23.0-0.0-0.0,0,0,27789,,1376.0,,,75.0,21.0,21.0,2000.0,1000.0,0.0,1.0,0.0,40-80,,1.0,seashell,desk,80.0,40.0,seashell4,desk3,60.0,60.0,seashell.jpg,D-1 Four drawers desk Elm 64x23x33.jpg,/static/Category_learning/Stimuli/Experimental_stims/seashell/seashell.jpg,/static/Category_learning/Stimuli/Experimental_stims/desk/D-1 Four drawers desk Elm 64x23x33.jpg,0.0,desk,seashell,40.0,80.0,desk3,seashell4,60.0,60.0,0.0,102.376,1.376,,,,,,
116,,confirmation,,html-keyboard-response,116,447862,0.0-1.0-23.0-0.0-1.0-0.0,0,0,27789,,,,,,21.0,,,,,,,,,,,,,,,,,,,,,,,,,,,,,,,,102.5,0.124,,,,,,
117,,isi,,html-keyboard-response,117,449871,0.0-1.0-23.0-0.0-2.0,0,0,27789,,,,,,,,,,,,,,,,,,,,,,,,,,,,,,,,,,,,,,104.5,2.0,,,,,,
118,,feedback,,html-keyboard-response,118,450880,0.0-1.0-23.0-0.0-3.0-0.0,0,0,27789,,,,,,21.0,,,,,,,,,,,,,,,,,,,,,,,,,,,,,,,,105.5,1.0,,,,,,
119,,iti,,html-keyboard-response,119,451888,0.0-1.0-23.0-0.0-5.0,0,0,27789,,,,,,,,,,,,,,,,,,,,,,,,,,,,,,,,,,,,,,106.5,1.0,,,,,,
120,,choice,,html-keyboard-response,120,452706,0.0-1.0-24.0-0.0-0.0,0,0,27789,,811.0,,,68.0,22.0,22.0,1000.0,3500.0,0.0,1.0,0.0,20-40,,1.0,bench,yarn,40.0,20.0,bench5,yarn5,20.0,0.0,APARKBEN8.jpg,Aballofyarn14.jpg,/static/Category_learning/Stimuli/Experimental_stims/bench/APARKBEN8.jpg,/static/Category_learning/Stimuli/Experimental_stims/yarn/Aballofyarn14.jpg,1.0,bench,yarn,40.0,20.0,bench5,yarn5,20.0,0.0,0.0,107.311,0.811,,,,,,
121,,confirmation,,html-keyboard-response,121,453402,0.0-1.0-24.0-0.0-1.0-0.0,0,0,27789,,,,,,22.0,,,,,,,,,,,,,,,,,,,,,,,,,,,,,,,,108.0,0.689,,,,,,
122,,isi,,html-keyboard-response,122,454411,0.0-1.0-24.0-0.0-2.0,0,0,27789,,,,,,,,,,,,,,,,,,,,,,,,,,,,,,,,,,,,,,109.0,1.0,,,,,,
123,,feedback,,html-keyboard-response,123,455421,0.0-1.0-24.0-0.0-3.0-0.0,0,0,27789,,,,,,22.0,,,,,,,,,,,,,,,,,,,,,,,,,,,,,,,,110.0,1.0,,,,,,
124,,iti,,html-keyboard-response,124,458929,0.0-1.0-24.0-0.0-5.0,0,0,27789,,,,,,,,,,,,,,,,,,,,,,,,,,,,,,,,,,,,,,113.5,3.5,,,,,,
125,,choice,,html-keyboard-response,125,459817,0.0-1.0-25.0-0.0-0.0,0,0,27789,,879.0,,,75.0,23.0,23.0,2000.0,1500.0,0.0,1.0,0.0,60-80,,1.0,necklace,hammer,80.0,60.0,necklace6,hammer6,100.0,80.0,Agoldnecklace.jpg,hammer03.jpg,/static/Category_learning/Stimuli/Experimental_stims/necklace/Agoldnecklace.jpg,/static/Category_learning/Stimuli/Experimental_stims/hammer/hammer03.jpg,0.0,hammer,necklace,60.0,80.0,hammer6,necklace6,80.0,100.0,0.0,114.379,0.879,,,,,,
126,,confirmation,,html-keyboard-response,126,460447,0.0-1.0-25.0-0.0-1.0-0.0,0,0,27789,,,,,,23.0,,,,,,,,,,,,,,,,,,,,,,,,,,,,,,,,115.0,0.621,,,,,,
127,,isi,,html-keyboard-response,127,462456,0.0-1.0-25.0-0.0-2.0,0,0,27789,,,,,,,,,,,,,,,,,,,,,,,,,,,,,,,,,,,,,,117.0,2.0,,,,,,
128,,feedback,,html-keyboard-response,128,463465,0.0-1.0-25.0-0.0-3.0-0.0,0,0,27789,,,,,,23.0,,,,,,,,,,,,,,,,,,,,,,,,,,,,,,,,118.0,1.0,,,,,,
129,,iti,,html-keyboard-response,129,464973,0.0-1.0-25.0-0.0-5.0,0,0,27789,,,,,,,,,,,,,,,,,,,,,,,,,,,,,,,,,,,,,,119.5,1.5,,,,,,
130,,choice,,html-keyboard-response,130,465722,0.0-1.0-26.0-0.0-0.0,0,0,27789,,742.0,,,68.0,24.0,24.0,3500.0,1500.0,0.0,1.0,0.0,20-20,,,watch,yarn,20.0,20.0,watch4,yarn9,40.0,40.0,B000EI2NBW.01._AA280_SCLZZZZZZZ_.jpg,Aballofyarn26.jpg,/static/Category_learning/Stimuli/Experimental_stims/watch/B000EI2NBW.01._AA280_SCLZZZZZZZ_.jpg,/static/Category_learning/Stimuli/Experimental_stims/yarn/Aballofyarn26.jpg,1.0,watch,yarn,20.0,20.0,watch4,yarn9,40.0,40.0,0.0,120.242,0.742,,,,,,
131,,confirmation,,html-keyboard-response,131,466490,0.0-1.0-26.0-0.0-1.0-0.0,0,0,27789,,,,,,24.0,,,,,,,,,,,,,,,,,,,,,,,,,,,,,,,,121.0,0.758,,,,,,
132,,isi,,html-keyboard-response,132,469999,0.0-1.0-26.0-0.0-2.0,0,0,27789,,,,,,,,,,,,,,,,,,,,,,,,,,,,,,,,,,,,,,124.5,3.5,,,,,,
133,,feedback,,html-keyboard-response,133,471010,0.0-1.0-26.0-0.0-3.0-0.0,0,0,27789,,,,,,24.0,,,,,,,,,,,,,,,,,,,,,,,,,,,,,,,,125.5,1.0,,,,,,
134,,iti,,html-keyboard-response,134,472518,0.0-1.0-26.0-0.0-5.0,0,0,27789,,,,,,,,,,,,,,,,,,,,,,,,,,,,,,,,,,,,,,127.0,1.5,,,,,,
135,,choice,,html-keyboard-response,135,473670,0.0-1.0-27.0-0.0-0.0,0,0,27789,,1144.0,,,68.0,25.0,25.0,1000.0,1000.0,0.0,1.0,0.0,40-60,,1.0,motorcycle,door knob,60.0,40.0,motorcycle15,door knob1,80.0,40.0,2006-Buell-LightningXB12Sa.jpg,Brass_Door_Handle.jpg,/static/Category_learning/Stimuli/Experimental_stims/motorcycle/2006-Buell-LightningXB12Sa.jpg,/static/Category_learning/Stimuli/Experimental_stims/door knob/Brass_Door_Handle.jpg,1.0,motorcycle,door knob,60.0,40.0,motorcycle15,door knob1,80.0,40.0,0.0,128.144,1.144,,,,,,
136,,confirmation,,html-keyboard-response,136,474034,0.0-1.0-27.0-0.0-1.0-0.0,0,0,27789,,,,,,25.0,,,,,,,,,,,,,,,,,,,,,,,,,,,,,,,,128.5,0.356,,,,,,
137,,isi,,html-keyboard-response,137,475042,0.0-1.0-27.0-0.0-2.0,0,0,27789,,,,,,,,,,,,,,,,,,,,,,,,,,,,,,,,,,,,,,129.5,1.0,,,,,,
138,,feedback,,html-keyboard-response,138,476052,0.0-1.0-27.0-0.0-3.0-0.0,0,0,27789,,,,,,25.0,,,,,,,,,,,,,,,,,,,,,,,,,,,,,,,,130.5,1.0,,,,,,
139,,iti,,html-keyboard-response,139,477060,0.0-1.0-27.0-0.0-5.0,0,0,27789,,,,,,,,,,,,,,,,,,,,,,,,,,,,,,,,,,,,,,131.5,1.0,,,,,,
140,,choice,,html-keyboard-response,140,478362,0.0-1.0-28.0-0.0-0.0,0,0,27789,,1294.0,,,68.0,26.0,26.0,1000.0,1000.0,0.0,1.0,0.0,40-60,,1.0,hammer,door knob,60.0,40.0,hammer8,door knob10,40.0,20.0,ct1006_hammer.jpg,c02a578d-c6cc-44ca-8dd2-de8901e30bd7_4.jpg,/static/Category_learning/Stimuli/Experimental_stims/hammer/ct1006_hammer.jpg,/static/Category_learning/Stimuli/Experimental_stims/door knob/c02a578d-c6cc-44ca-8dd2-de8901e30bd7_4.jpg,1.0,hammer,door knob,60.0,40.0,hammer8,door knob10,40.0,20.0,0.0,132.794,1.294,,,,,,
141,,confirmation,,html-keyboard-response,141,478577,0.0-1.0-28.0-0.0-1.0-0.0,0,0,27789,,,,,,26.0,,,,,,,,,,,,,,,,,,,,,,,,,,,,,,,,133.0,0.206,,,,,,
142,,isi,,html-keyboard-response,142,479587,0.0-1.0-28.0-0.0-2.0,0,0,27789,,,,,,,,,,,,,,,,,,,,,,,,,,,,,,,,,,,,,,134.0,1.0,,,,,,
143,,feedback,,html-keyboard-response,143,480596,0.0-1.0-28.0-0.0-3.0-0.0,0,0,27789,,,,,,26.0,,,,,,,,,,,,,,,,,,,,,,,,,,,,,,,,135.0,1.0,,,,,,
144,,iti,,html-keyboard-response,144,481604,0.0-1.0-28.0-0.0-5.0,0,0,27789,,,,,,,,,,,,,,,,,,,,,,,,,,,,,,,,,,,,,,136.0,1.0,,,,,,
145,,choice,,html-keyboard-response,145,482841,0.0-1.0-29.0-0.0-0.0,0,0,27789,,1229.0,,,75.0,27.0,27.0,1500.0,1000.0,0.0,1.0,0.0,20-80,,1.0,small table,vase,80.0,20.0,small table7,vase4,80.0,40.0,ATABLE89.jpg,Avase111.jpg,/static/Category_learning/Stimuli/Experimental_stims/small table/ATABLE89.jpg,/static/Category_learning/Stimuli/Experimental_stims/vase/Avase111.jpg,0.0,vase,small table,20.0,80.0,vase4,small table7,40.0,80.0,0.0,137.229,1.229,,,,,,
146,,confirmation,,html-keyboard-response,146,483121,0.0-1.0-29.0-0.0-1.0-0.0,0,0,27789,,,,,,27.0,,,,,,,,,,,,,,,,,,,,,,,,,,,,,,,,137.5,0.271,,,,,,
147,,isi,,html-keyboard-response,147,484630,0.0-1.0-29.0-0.0-2.0,0,0,27789,,,,,,,,,,,,,,,,,,,,,,,,,,,,,,,,,,,,,,139.0,1.5,,,,,,
148,,feedback,,html-keyboard-response,148,485639,0.0-1.0-29.0-0.0-3.0-0.0,0,0,27789,,,,,,27.0,,,,,,,,,,,,,,,,,,,,,,,,,,,,,,,,140.0,1.0,,,,,,
149,,iti,,html-keyboard-response,149,486648,0.0-1.0-29.0-0.0-5.0,0,0,27789,,,,,,,,,,,,,,,,,,,,,,,,,,,,,,,,,,,,,,141.0,1.0,,,,,,
150,,choice,,html-keyboard-response,150,487658,0.0-1.0-30.0-0.0-0.0,0,0,27789,,1001.0,,,75.0,28.0,28.0,1000.0,1000.0,0.0,1.0,1.0,20-20,1.0,,trumpet,trumpet,20.0,20.0,trumpet10,trumpet1,40.0,40.0,trumpet2.jpg,JUPITER+TROMPETTE+606MRL.JPG,/static/Category_learning/Stimuli/Experimental_stims/trumpet/trumpet2.jpg,/static/Category_learning/Stimuli/Experimental_stims/trumpet/JUPITER+TROMPETTE+606MRL.JPG,0.0,trumpet,trumpet,20.0,20.0,trumpet1,trumpet10,40.0,40.0,0.0,142.001,1.001,,,,,,
151,,confirmation,,html-keyboard-response,151,488168,0.0-1.0-30.0-0.0-1.0-0.0,0,0,27789,,,,,,28.0,,,,,,,,,,,,,,,,,,,,,,,,,,,,,,,,142.5,0.499,,,,,,
152,,isi,,html-keyboard-response,152,489177,0.0-1.0-30.0-0.0-2.0,0,0,27789,,,,,,,,,,,,,,,,,,,,,,,,,,,,,,,,,,,,,,143.5,1.0,,,,,,
153,,feedback,,html-keyboard-response,153,490187,0.0-1.0-30.0-0.0-3.0-0.0,0,0,27789,,,,,,28.0,,,,,,,,,,,,,,,,,,,,,,,,,,,,,,,,144.5,1.0,,,,,,
154,,iti,,html-keyboard-response,154,491195,0.0-1.0-30.0-0.0-5.0,0,0,27789,,,,,,,,,,,,,,,,,,,,,,,,,,,,,,,,,,,,,,145.5,1.0,,,,,,
155,,choice,,html-keyboard-response,155,491871,0.0-1.0-31.0-0.0-0.0,0,0,27789,,668.0,,,68.0,29.0,29.0,3500.0,1000.0,0.0,1.0,0.0,40-40,,,fan,bench,40.0,40.0,fan5,bench12,20.0,20.0,Table_Fan.jpg,22927976.thl.jpg,/static/Category_learning/Stimuli/Experimental_stims/fan/Table_Fan.jpg,/static/Category_learning/Stimuli/Experimental_stims/bench/22927976.thl.jpg,1.0,fan,bench,40.0,40.0,fan5,bench12,20.0,20.0,0.0,146.168,0.668,,,,,,
156,,confirmation,,html-keyboard-response,156,492713,0.0-1.0-31.0-0.0-1.0-0.0,0,0,27789,,,,,,29.0,,,,,,,,,,,,,,,,,,,,,,,,,,,,,,,,147.0,0.832,,,,,,
157,,isi,,html-keyboard-response,157,496222,0.0-1.0-31.0-0.0-2.0,0,0,27789,,,,,,,,,,,,,,,,,,,,,,,,,,,,,,,,,,,,,,150.5,3.5,,,,,,
158,,feedback,,html-keyboard-response,158,497245,0.0-1.0-31.0-0.0-3.0-0.0,0,0,27789,,,,,,29.0,,,,,,,,,,,,,,,,,,,,,,,,,,,,,,,,151.5,1.0,,,,,,
159,,iti,,html-keyboard-response,159,498253,0.0-1.0-31.0-0.0-5.0,0,0,27789,,,,,,,,,,,,,,,,,,,,,,,,,,,,,,,,,,,,,,152.5,1.0,,,,,,
160,,choice,,html-keyboard-response,160,499048,0.0-1.0-32.0-0.0-0.0,0,0,27789,,788.0,,,75.0,30.0,30.0,1000.0,3000.0,0.0,1.0,1.0,60-60,1.0,,hammer,hammer,60.0,60.0,hammer6,hammer8,80.0,40.0,hammer03.jpg,ct1006_hammer.jpg,/static/Category_learning/Stimuli/Experimental_stims/hammer/hammer03.jpg,/static/Category_learning/Stimuli/Experimental_stims/hammer/ct1006_hammer.jpg,0.0,hammer,hammer,60.0,60.0,hammer8,hammer6,40.0,80.0,0.0,153.288,0.788,,,,,,
161,,confirmation,,html-keyboard-response,161,499770,0.0-1.0-32.0-0.0-1.0-0.0,0,0,27789,,,,,,30.0,,,,,,,,,,,,,,,,,,,,,,,,,,,,,,,,154.0,0.712,,,,,,
162,,isi,,html-keyboard-response,162,500779,0.0-1.0-32.0-0.0-2.0,0,0,27789,,,,,,,,,,,,,,,,,,,,,,,,,,,,,,,,,,,,,,155.0,1.0,,,,,,
163,,feedback,,html-keyboard-response,163,501788,0.0-1.0-32.0-0.0-3.0-0.0,0,0,27789,,,,,,30.0,,,,,,,,,,,,,,,,,,,,,,,,,,,,,,,,156.0,1.0,,,,,,
164,,iti,,html-keyboard-response,164,504798,0.0-1.0-32.0-0.0-5.0,0,0,27789,,,,,,,,,,,,,,,,,,,,,,,,,,,,,,,,,,,,,,159.0,3.0,,,,,,
165,,choice,,html-keyboard-response,165,505663,0.0-1.0-33.0-0.0-0.0,0,0,27789,,857.0,,,68.0,31.0,31.0,1500.0,1500.0,0.0,1.0,0.0,80-80,,,sofa,patio lounge chair,80.0,80.0,sofa15,patio lounge chair9,100.0,80.0,APEACHLOV.jpg,43-3.jpg,/static/Category_learning/Stimuli/Experimental_stims/sofa/APEACHLOV.jpg,/static/Category_learning/Stimuli/Experimental_stims/patio lounge chair/43-3.jpg,1.0,sofa,patio lounge chair,80.0,80.0,sofa15,patio lounge chair9,100.0,80.0,0.0,159.857,0.857,,,,,,
166,,confirmation,,html-keyboard-response,166,506315,0.0-1.0-33.0-0.0-1.0-0.0,0,0,27789,,,,,,31.0,,,,,,,,,,,,,,,,,,,,,,,,,,,,,,,,160.5,0.643,,,,,,
167,,isi,,html-keyboard-response,167,507824,0.0-1.0-33.0-0.0-2.0,0,0,27789,,,,,,,,,,,,,,,,,,,,,,,,,,,,,,,,,,,,,,162.0,1.5,,,,,,
168,,feedback,,html-keyboard-response,168,508832,0.0-1.0-33.0-0.0-3.0-0.0,0,0,27789,,,,,,31.0,,,,,,,,,,,,,,,,,,,,,,,,,,,,,,,,163.0,1.0,,,,,,
169,,iti,,html-keyboard-response,169,510340,0.0-1.0-33.0-0.0-5.0,0,0,27789,,,,,,,,,,,,,,,,,,,,,,,,,,,,,,,,,,,,,,164.5,1.5,,,,,,
170,,choice,,html-keyboard-response,170,511174,0.0-1.0-34.0-0.0-0.0,0,0,27789,,826.0,,,75.0,32.0,32.0,1000.0,1000.0,0.0,1.0,0.0,20-80,,1.0,necklace,vase,80.0,20.0,necklace1,vase12,100.0,0.0,26443173.thl.jpg,Abluevase2.jpg,/static/Category_learning/Stimuli/Experimental_stims/necklace/26443173.thl.jpg,/static/Category_learning/Stimuli/Experimental_stims/vase/Abluevase2.jpg,0.0,vase,necklace,20.0,80.0,vase12,necklace1,0.0,100.0,0.0,165.326,0.826,,,,,,
171,,confirmation,,html-keyboard-response,171,511857,0.0-1.0-34.0-0.0-1.0-0.0,0,0,27789,,,,,,32.0,,,,,,,,,,,,,,,,,,,,,,,,,,,,,,,,166.0,0.674,,,,,,
172,,isi,,html-keyboard-response,172,512865,0.0-1.0-34.0-0.0-2.0,0,0,27789,,,,,,,,,,,,,,,,,,,,,,,,,,,,,,,,,,,,,,167.0,1.0,,,,,,
173,,feedback,,html-keyboard-response,173,513874,0.0-1.0-34.0-0.0-3.0-0.0,0,0,27789,,,,,,32.0,,,,,,,,,,,,,,,,,,,,,,,,,,,,,,,,168.0,1.0,,,,,,
174,,iti,,html-keyboard-response,174,514882,0.0-1.0-34.0-0.0-5.0,0,0,27789,,,,,,,,,,,,,,,,,,,,,,,,,,,,,,,,,,,,,,169.0,1.0,,,,,,
175,,choice,,html-keyboard-response,175,515798,0.0-1.0-35.0-0.0-0.0,0,0,27789,,907.0,,,75.0,33.0,33.0,3500.0,1000.0,0.0,1.0,0.0,40-80,,1.0,nail polish,desk,80.0,40.0,nail polish14,desk14,80.0,20.0,38031405.JPG,26419960.thl.jpg,/static/Category_learning/Stimuli/Experimental_stims/nail polish/38031405.JPG,/static/Category_learning/Stimuli/Experimental_stims/desk/26419960.thl.jpg,0.0,desk,nail polish,40.0,80.0,desk14,nail polish14,20.0,80.0,0.0,169.907,0.907,,,,,,
176,,confirmation,,html-keyboard-response,176,516401,0.0-1.0-35.0-0.0-1.0-0.0,0,0,27789,,,,,,33.0,,,,,,,,,,,,,,,,,,,,,,,,,,,,,,,,170.5,0.593,,,,,,
177,,isi,,html-keyboard-response,177,519909,0.0-1.0-35.0-0.0-2.0,0,0,27789,,,,,,,,,,,,,,,,,,,,,,,,,,,,,,,,,,,,,,174.0,3.5,,,,,,
178,,feedback,,html-keyboard-response,178,520919,0.0-1.0-35.0-0.0-3.0-0.0,0,0,27789,,,,,,33.0,,,,,,,,,,,,,,,,,,,,,,,,,,,,,,,,175.0,1.0,,,,,,
179,,iti,,html-keyboard-response,179,521937,0.0-1.0-35.0-0.0-5.0,0,0,27789,,,,,,,,,,,,,,,,,,,,,,,,,,,,,,,,,,,,,,176.0,1.0,,,,,,
180,,choice,,html-keyboard-response,180,523054,0.0-1.0-36.0-0.0-0.0,0,0,27789,,1108.0,,,75.0,34.0,34.0,1000.0,1000.0,0.0,1.0,1.0,20-20,1.0,,vase,vase,20.0,20.0,vase12,vase4,0.0,40.0,Abluevase2.jpg,Avase111.jpg,/static/Category_learning/Stimuli/Experimental_stims/vase/Abluevase2.jpg,/static/Category_learning/Stimuli/Experimental_stims/vase/Avase111.jpg,0.0,vase,vase,20.0,20.0,vase4,vase12,40.0,0.0,0.0,177.108,1.108,,,,,,
181,,confirmation,,html-keyboard-response,181,523456,0.0-1.0-36.0-0.0-1.0-0.0,0,0,27789,,,,,,34.0,,,,,,,,,,,,,,,,,,,,,,,,,,,,,,,,177.5,0.392,,,,,,
182,,isi,,html-keyboard-response,182,524463,0.0-1.0-36.0-0.0-2.0,0,0,27789,,,,,,,,,,,,,,,,,,,,,,,,,,,,,,,,,,,,,,178.5,1.0,,,,,,
183,,feedback,,html-keyboard-response,183,525472,0.0-1.0-36.0-0.0-3.0-0.0,0,0,27789,,,,,,34.0,,,,,,,,,,,,,,,,,,,,,,,,,,,,,,,,179.5,1.0,,,,,,
184,,iti,,html-keyboard-response,184,526481,0.0-1.0-36.0-0.0-5.0,0,0,27789,,,,,,,,,,,,,,,,,,,,,,,,,,,,,,,,,,,,,,180.5,1.0,,,,,,
185,,choice,,html-keyboard-response,185,527942,0.0-1.0-37.0-0.0-0.0,0,0,27789,,1453.0,,,75.0,35.0,35.0,1000.0,1500.0,0.0,1.0,1.0,40-40,1.0,,desk,desk,40.0,40.0,desk14,desk3,20.0,60.0,26419960.thl.jpg,D-1 Four drawers desk Elm 64x23x33.jpg,/static/Category_learning/Stimuli/Experimental_stims/desk/26419960.thl.jpg,/static/Category_learning/Stimuli/Experimental_stims/desk/D-1 Four drawers desk Elm 64x23x33.jpg,0.0,desk,desk,40.0,40.0,desk3,desk14,60.0,20.0,0.0,181.953,1.453,,,,,,
186,,confirmation,,html-keyboard-response,186,527997,0.0-1.0-37.0-0.0-1.0-0.0,0,0,27789,,,,,,35.0,,,,,,,,,,,,,,,,,,,,,,,,,,,,,,,,182.0,0.047,,,,,,
187,,isi,,html-keyboard-response,187,529005,0.0-1.0-37.0-0.0-2.0,0,0,27789,,,,,,,,,,,,,,,,,,,,,,,,,,,,,,,,,,,,,,183.0,1.0,,,,,,
188,,feedback,,html-keyboard-response,188,530013,0.0-1.0-37.0-0.0-3.0-0.0,0,0,27789,,,,,,35.0,,,,,,,,,,,,,,,,,,,,,,,,,,,,,,,,184.0,1.0,,,,,,
189,,iti,,html-keyboard-response,189,531522,0.0-1.0-37.0-0.0-5.0,0,0,27789,,,,,,,,,,,,,,,,,,,,,,,,,,,,,,,,,,,,,,185.5,1.5,,,,,,
190,,choice,,html-keyboard-response,190,532589,0.0-1.0-38.0-0.0-0.0,0,0,27789,,1060.0,,,75.0,36.0,36.0,3000.0,3500.0,0.0,1.0,1.0,20-20,1.0,,train,train,20.0,20.0,train6,train9,0.0,20.0,train9.jpg,train2.jpg,/static/Category_learning/Stimuli/Experimental_stims/train/train9.jpg,/static/Category_learning/Stimuli/Experimental_stims/train/train2.jpg,0.0,train,train,20.0,20.0,train9,train6,20.0,0.0,0.0,186.56,1.06,,,,,,
191,,confirmation,,html-keyboard-response,191,533040,0.0-1.0-38.0-0.0-1.0-0.0,0,0,27789,,,,,,36.0,,,,,,,,,,,,,,,,,,,,,,,,,,,,,,,,187.0,0.44,,,,,,
192,,isi,,html-keyboard-response,192,536047,0.0-1.0-38.0-0.0-2.0,0,0,27789,,,,,,,,,,,,,,,,,,,,,,,,,,,,,,,,,,,,,,190.0,3.0,,,,,,
193,,feedback,,html-keyboard-response,193,537057,0.0-1.0-38.0-0.0-3.0-0.0,0,0,27789,,,,,,36.0,,,,,,,,,,,,,,,,,,,,,,,,,,,,,,,,191.0,1.0,,,,,,
194,,iti,,html-keyboard-response,194,540565,0.0-1.0-38.0-0.0-5.0,0,0,27789,,,,,,,,,,,,,,,,,,,,,,,,,,,,,,,,,,,,,,194.5,3.5,,,,,,
195,,choice,,html-keyboard-response,195,541612,0.0-1.0-39.0-0.0-0.0,0,0,27789,,1039.0,,,75.0,37.0,37.0,2000.0,1000.0,0.0,1.0,0.0,40-80,,1.0,necklace,flashlight,80.0,40.0,necklace10,flashlight6,60.0,40.0,necklascenew03.jpg,Flashlight.jpg,/static/Category_learning/Stimuli/Experimental_stims/necklace/necklascenew03.jpg,/static/Category_learning/Stimuli/Experimental_stims/flashlight/Flashlight.jpg,0.0,flashlight,necklace,40.0,80.0,flashlight6,necklace10,40.0,60.0,0.0,195.539,1.039,,,,,,
196,,confirmation,,html-keyboard-response,196,542081,0.0-1.0-39.0-0.0-1.0-0.0,0,0,27789,,,,,,37.0,,,,,,,,,,,,,,,,,,,,,,,,,,,,,,,,196.0,0.461,,,,,,
197,,isi,,html-keyboard-response,197,544089,0.0-1.0-39.0-0.0-2.0,0,0,27789,,,,,,,,,,,,,,,,,,,,,,,,,,,,,,,,,,,,,,198.0,2.0,,,,,,
198,,feedback,,html-keyboard-response,198,545099,0.0-1.0-39.0-0.0-3.0-0.0,0,0,27789,,,,,,37.0,,,,,,,,,,,,,,,,,,,,,,,,,,,,,,,,199.0,1.0,,,,,,
199,,iti,,html-keyboard-response,199,546107,0.0-1.0-39.0-0.0-5.0,0,0,27789,,,,,,,,,,,,,,,,,,,,,,,,,,,,,,,,,,,,,,200.0,1.0,,,,,,
200,,choice,,html-keyboard-response,200,547382,0.0-1.0-40.0-0.0-0.0,0,0,27789,,1267.0,,,68.0,38.0,38.0,1000.0,1000.0,0.0,1.0,1.0,40-40,1.0,,flashlight,flashlight,40.0,40.0,flashlight6,flashlight5,40.0,60.0,Flashlight.jpg,Streamlight-71001-Jr-Flashlight-W-batteries-black-B00018A3CG-L.jpg,/static/Category_learning/Stimuli/Experimental_stims/flashlight/Flashlight.jpg,/static/Category_learning/Stimuli/Experimental_stims/flashlight/Streamlight-71001-Jr-Flashlight-W-batteries-black-B00018A3CG-L.jpg,1.0,flashlight,flashlight,40.0,40.0,flashlight6,flashlight5,40.0,60.0,0.0,201.267,1.267,,,,,,
201,,confirmation,,html-keyboard-response,201,547624,0.0-1.0-40.0-0.0-1.0-0.0,0,0,27789,,,,,,38.0,,,,,,,,,,,,,,,,,,,,,,,,,,,,,,,,201.5,0.233,,,,,,
202,,isi,,html-keyboard-response,202,548633,0.0-1.0-40.0-0.0-2.0,0,0,27789,,,,,,,,,,,,,,,,,,,,,,,,,,,,,,,,,,,,,,202.5,1.0,,,,,,
203,,feedback,,html-keyboard-response,203,549642,0.0-1.0-40.0-0.0-3.0-0.0,0,0,27789,,,,,,38.0,,,,,,,,,,,,,,,,,,,,,,,,,,,,,,,,203.5,1.0,,,,,,
204,,iti,,html-keyboard-response,204,550651,0.0-1.0-40.0-0.0-5.0,0,0,27789,,,,,,,,,,,,,,,,,,,,,,,,,,,,,,,,,,,,,,204.5,1.0,,,,,,
205,,choice,,html-keyboard-response,205,551771,0.0-1.0-41.0-0.0-0.0,0,0,27789,,1113.0,,,75.0,39.0,39.0,1000.0,1500.0,0.0,1.0,0.0,20-60,,1.0,hat,stool,60.0,20.0,hat1,stool8,60.0,0.0,AGREENHAT.jpg,ASTOOL33.jpg,/static/Category_learning/Stimuli/Experimental_stims/hat/AGREENHAT.jpg,/static/Category_learning/Stimuli/Experimental_stims/stool/ASTOOL33.jpg,0.0,stool,hat,20.0,60.0,stool8,hat1,0.0,60.0,0.0,205.613,1.113,,,,,,
206,,confirmation,,html-keyboard-response,206,552174,0.0-1.0-41.0-0.0-1.0-0.0,0,0,27789,,,,,,39.0,,,,,,,,,,,,,,,,,,,,,,,,,,,,,,,,206.0,0.387,,,,,,
207,,isi,,html-keyboard-response,207,553181,0.0-1.0-41.0-0.0-2.0,0,0,27789,,,,,,,,,,,,,,,,,,,,,,,,,,,,,,,,,,,,,,207.0,1.0,,,,,,
208,,feedback,,html-keyboard-response,208,554191,0.0-1.0-41.0-0.0-3.0-0.0,0,0,27789,,,,,,39.0,,,,,,,,,,,,,,,,,,,,,,,,,,,,,,,,208.0,1.0,,,,,,
209,,iti,,html-keyboard-response,209,555699,0.0-1.0-41.0-0.0-5.0,0,0,27789,,,,,,,,,,,,,,,,,,,,,,,,,,,,,,,,,,,,,,209.5,1.5,,,,,,
210,,choice,,html-keyboard-response,210,556946,0.0-1.0-42.0-0.0-0.0,0,0,27789,,1240.0,,,75.0,40.0,40.0,1000.0,3500.0,0.0,1.0,0.0,20-80,,0.0,tape,power strip,20.0,80.0,tape9,power strip10,40.0,80.0,desk tape disp.jpg,6bd437c9-6165-4d36-bf75-9a1038783c6a_400.jpg,/static/Category_learning/Stimuli/Experimental_stims/tape/desk tape disp.jpg,/static/Category_learning/Stimuli/Experimental_stims/power strip/6bd437c9-6165-4d36-bf75-9a1038783c6a_400.jpg,0.0,power strip,tape,80.0,20.0,power strip10,tape9,80.0,40.0,0.0,210.74,1.24,,,,,,
211,,confirmation,,html-keyboard-response,211,557216,0.0-1.0-42.0-0.0-1.0-0.0,0,0,27789,,,,,,40.0,,,,,,,,,,,,,,,,,,,,,,,,,,,,,,,,211.0,0.26,,,,,,
212,,isi,,html-keyboard-response,212,558224,0.0-1.0-42.0-0.0-2.0,0,0,27789,,,,,,,,,,,,,,,,,,,,,,,,,,,,,,,,,,,,,,212.0,1.0,,,,,,
213,,feedback,,html-keyboard-response,213,559232,0.0-1.0-42.0-0.0-3.0-0.0,0,0,27789,,,,,,40.0,,,,,,,,,,,,,,,,,,,,,,,,,,,,,,,,213.0,1.0,,,,,,
214,,iti,,html-keyboard-response,214,562741,0.0-1.0-42.0-0.0-5.0,0,0,27789,,,,,,,,,,,,,,,,,,,,,,,,,,,,,,,,,,,,,,216.5,3.5,,,,,,
215,,choice,,html-keyboard-response,215,563514,0.0-1.0-43.0-0.0-0.0,0,0,27789,,764.0,,,75.0,41.0,41.0,1500.0,1000.0,0.0,1.0,0.0,20-80,,0.0,tape,poker card,20.0,80.0,tape12,poker card4,40.0,60.0,Frog-Tape-Dispenser_F02218A2.jpg,22864728.thl.jpg,/static/Category_learning/Stimuli/Experimental_stims/tape/Frog-Tape-Dispenser_F02218A2.jpg,/static/Category_learning/Stimuli/Experimental_stims/poker card/22864728.thl.jpg,0.0,poker card,tape,80.0,20.0,poker card4,tape12,60.0,40.0,0.0,217.264,0.764,,,,,,
216,,confirmation,,html-keyboard-response,216,564259,0.0-1.0-43.0-0.0-1.0-0.0,0,0,27789,,,,,,41.0,,,,,,,,,,,,,,,,,,,,,,,,,,,,,,,,218.0,0.736,,,,,,
217,,isi,,html-keyboard-response,217,565767,0.0-1.0-43.0-0.0-2.0,0,0,27789,,,,,,,,,,,,,,,,,,,,,,,,,,,,,,,,,,,,,,219.5,1.5,,,,,,
218,,feedback,,html-keyboard-response,218,566774,0.0-1.0-43.0-0.0-3.0-0.0,0,0,27789,,,,,,41.0,,,,,,,,,,,,,,,,,,,,,,,,,,,,,,,,220.5,1.0,,,,,,
219,,iti,,html-keyboard-response,219,567782,0.0-1.0-43.0-0.0-5.0,0,0,27789,,,,,,,,,,,,,,,,,,,,,,,,,,,,,,,,,,,,,,221.5,1.0,,,,,,
220,,choice,,html-keyboard-response,220,568866,0.0-1.0-44.0-0.0-0.0,0,0,27789,,1076.0,,,75.0,42.0,42.0,2000.0,3500.0,0.0,1.0,0.0,20-80,,1.0,power strip,telescope,80.0,20.0,power strip13,telescope2,100.0,40.0,01dccef1-d4b2-4d2e-a317-f2ed46b70b4b_400.jpg,Brass-telescope-60700.jpg,/static/Category_learning/Stimuli/Experimental_stims/power strip/01dccef1-d4b2-4d2e-a317-f2ed46b70b4b_400.jpg,/static/Category_learning/Stimuli/Experimental_stims/telescope/Brass-telescope-60700.jpg,0.0,telescope,power strip,20.0,80.0,telescope2,power strip13,40.0,100.0,0.0,222.576,1.076,,,,,,
221,,confirmation,,html-keyboard-response,221,569300,0.0-1.0-44.0-0.0-1.0-0.0,0,0,27789,,,,,,42.0,,,,,,,,,,,,,,,,,,,,,,,,,,,,,,,,223.0,0.424,,,,,,
222,,isi,,html-keyboard-response,222,571310,0.0-1.0-44.0-0.0-2.0,0,0,27789,,,,,,,,,,,,,,,,,,,,,,,,,,,,,,,,,,,,,,225.0,2.0,,,,,,
223,,feedback,,html-keyboard-response,223,572319,0.0-1.0-44.0-0.0-3.0-0.0,0,0,27789,,,,,,42.0,,,,,,,,,,,,,,,,,,,,,,,,,,,,,,,,226.0,1.0,,,,,,
224,,iti,,html-keyboard-response,224,575828,0.0-1.0-44.0-0.0-5.0,0,0,27789,,,,,,,,,,,,,,,,,,,,,,,,,,,,,,,,,,,,,,229.5,3.5,,,,,,
225,,choice,,html-keyboard-response,225,576856,0.0-1.0-45.0-0.0-0.0,0,0,27789,,1020.0,,,68.0,43.0,43.0,1000.0,2000.0,0.0,1.0,0.0,20-60,,0.0,yarn,makeup compact,20.0,60.0,yarn2,makeup compact6,20.0,80.0,Aballofyarn66.jpg,P0754_hero.jpg,/static/Category_learning/Stimuli/Experimental_stims/yarn/Aballofyarn66.jpg,/static/Category_learning/Stimuli/Experimental_stims/makeup compact/P0754_hero.jpg,1.0,yarn,makeup compact,20.0,60.0,yarn2,makeup compact6,20.0,80.0,0.0,230.52,1.02,,,,,,
226,,confirmation,,html-keyboard-response,226,577347,0.0-1.0-45.0-0.0-1.0-0.0,0,0,27789,,,,,,43.0,,,,,,,,,,,,,,,,,,,,,,,,,,,,,,,,231.0,0.48,,,,,,
227,,isi,,html-keyboard-response,227,578355,0.0-1.0-45.0-0.0-2.0,0,0,27789,,,,,,,,,,,,,,,,,,,,,,,,,,,,,,,,,,,,,,232.0,1.0,,,,,,
228,,feedback,,html-keyboard-response,228,579364,0.0-1.0-45.0-0.0-3.0-0.0,0,0,27789,,,,,,43.0,,,,,,,,,,,,,,,,,,,,,,,,,,,,,,,,233.0,1.0,,,,,,
229,,iti,,html-keyboard-response,229,581373,0.0-1.0-45.0-0.0-5.0,0,0,27789,,,,,,,,,,,,,,,,,,,,,,,,,,,,,,,,,,,,,,235.0,2.0,,,,,,
230,,choice,,html-keyboard-response,230,582438,0.0-1.0-46.0-0.0-0.0,0,0,27789,,1057.0,,,75.0,44.0,44.0,1000.0,1000.0,0.0,1.0,0.0,20-60,,0.0,stool,makeup compact,20.0,60.0,stool15,makeup compact3,20.0,40.0,ASTOOL.jpg,P181006_hero.jpg,/static/Category_learning/Stimuli/Experimental_stims/stool/ASTOOL.jpg,/static/Category_learning/Stimuli/Experimental_stims/makeup compact/P181006_hero.jpg,0.0,makeup compact,stool,60.0,20.0,makeup compact3,stool15,40.0,20.0,0.0,236.057,1.057,,,,,,
231,,confirmation,,html-keyboard-response,231,582891,0.0-1.0-46.0-0.0-1.0-0.0,0,0,27789,,,,,,44.0,,,,,,,,,,,,,,,,,,,,,,,,,,,,,,,,236.5,0.443,,,,,,
232,,isi,,html-keyboard-response,232,583901,0.0-1.0-46.0-0.0-2.0,0,0,27789,,,,,,,,,,,,,,,,,,,,,,,,,,,,,,,,,,,,,,237.5,1.0,,,,,,
233,,feedback,,html-keyboard-response,233,584909,0.0-1.0-46.0-0.0-3.0-0.0,0,0,27789,,,,,,44.0,,,,,,,,,,,,,,,,,,,,,,,,,,,,,,,,238.5,1.0,,,,,,
234,,iti,,html-keyboard-response,234,585930,0.0-1.0-46.0-0.0-5.0,0,0,27789,,,,,,,,,,,,,,,,,,,,,,,,,,,,,,,,,,,,,,239.5,1.0,,,,,,
235,,choice,,html-keyboard-response,235,587182,0.0-1.0-47.0-0.0-0.0,0,0,27789,,1244.0,,,68.0,45.0,45.0,1000.0,1000.0,0.0,1.0,0.0,20-20,,,tape,watch,20.0,20.0,tape6,watch15,40.0,40.0,1912.jpg,20-171-6.jpg,/static/Category_learning/Stimuli/Experimental_stims/tape/1912.jpg,/static/Category_learning/Stimuli/Experimental_stims/watch/20-171-6.jpg,1.0,tape,watch,20.0,20.0,tape6,watch15,40.0,40.0,0.0,240.744,1.244,,,,,,
236,,confirmation,,html-keyboard-response,236,587448,0.0-1.0-47.0-0.0-1.0-0.0,0,0,27789,,,,,,45.0,,,,,,,,,,,,,,,,,,,,,,,,,,,,,,,,241.0,0.256,,,,,,
237,,isi,,html-keyboard-response,237,588457,0.0-1.0-47.0-0.0-2.0,0,0,27789,,,,,,,,,,,,,,,,,,,,,,,,,,,,,,,,,,,,,,242.0,1.0,,,,,,
238,,feedback,,html-keyboard-response,238,589465,0.0-1.0-47.0-0.0-3.0-0.0,0,0,27789,,,,,,45.0,,,,,,,,,,,,,,,,,,,,,,,,,,,,,,,,243.0,1.0,,,,,,
239,,iti,,html-keyboard-response,239,590473,0.0-1.0-47.0-0.0-5.0,0,0,27789,,,,,,,,,,,,,,,,,,,,,,,,,,,,,,,,,,,,,,244.0,1.0,,,,,,
240,,choice,,html-keyboard-response,240,591623,0.0-1.0-48.0-0.0-0.0,0,0,27789,,1142.0,,,75.0,46.0,46.0,1500.0,2000.0,0.0,1.0,0.0,40-80,,1.0,nail polish,fan,80.0,40.0,nail polish6,fan1,60.0,60.0,127_t.jpg,01393.fpx.jpg,/static/Category_learning/Stimuli/Experimental_stims/nail polish/127_t.jpg,/static/Category_learning/Stimuli/Experimental_stims/fan/01393.fpx.jpg,0.0,fan,nail polish,40.0,80.0,fan1,nail polish6,60.0,60.0,0.0,245.142,1.142,,,,,,
241,,confirmation,,html-keyboard-response,241,591990,0.0-1.0-48.0-0.0-1.0-0.0,0,0,27789,,,,,,46.0,,,,,,,,,,,,,,,,,,,,,,,,,,,,,,,,245.5,0.358,,,,,,
242,,isi,,html-keyboard-response,242,593499,0.0-1.0-48.0-0.0-2.0,0,0,27789,,,,,,,,,,,,,,,,,,,,,,,,,,,,,,,,,,,,,,247.0,1.5,,,,,,
243,,feedback,,html-keyboard-response,243,594508,0.0-1.0-48.0-0.0-3.0-0.0,0,0,27789,,,,,,46.0,,,,,,,,,,,,,,,,,,,,,,,,,,,,,,,,248.0,1.0,,,,,,
244,,iti,,html-keyboard-response,244,596518,0.0-1.0-48.0-0.0-5.0,0,0,27789,,,,,,,,,,,,,,,,,,,,,,,,,,,,,,,,,,,,,,250.0,2.0,,,,,,
245,,choice,,html-keyboard-response,245,597358,0.0-1.0-49.0-0.0-0.0,0,0,27789,,831.0,,,68.0,47.0,47.0,1500.0,2000.0,0.0,1.0,0.0,60-80,,1.0,pen,license plate,80.0,60.0,pen10,license plate8,100.0,60.0,VP-Raden-FP-L copy.jpg,dc-vrw-jsw.jpg,/static/Category_learning/Stimuli/Experimental_stims/pen/VP-Raden-FP-L copy.jpg,/static/Category_learning/Stimuli/Experimental_stims/license plate/dc-vrw-jsw.jpg,1.0,pen,license plate,80.0,60.0,pen10,license plate8,100.0,60.0,0.0,250.831,0.831,,,,,,
246,,confirmation,,html-keyboard-response,246,598036,0.0-1.0-49.0-0.0-1.0-0.0,0,0,27789,,,,,,47.0,,,,,,,,,,,,,,,,,,,,,,,,,,,,,,,,251.5,0.669,,,,,,
247,,isi,,html-keyboard-response,247,599544,0.0-1.0-49.0-0.0-2.0,0,0,27789,,,,,,,,,,,,,,,,,,,,,,,,,,,,,,,,,,,,,,253.0,1.5,,,,,,
248,,feedback,,html-keyboard-response,248,600554,0.0-1.0-49.0-0.0-3.0-0.0,0,0,27789,,,,,,47.0,,,,,,,,,,,,,,,,,,,,,,,,,,,,,,,,254.0,1.0,,,,,,
249,,iti,,html-keyboard-response,249,602562,0.0-1.0-49.0-0.0-5.0,0,0,27789,,,,,,,,,,,,,,,,,,,,,,,,,,,,,,,,,,,,,,256.0,2.0,,,,,,
250,,choice,,html-keyboard-response,250,603603,0.0-1.0-50.0-0.0-0.0,0,0,27789,,1034.0,,,75.0,48.0,48.0,1500.0,1000.0,0.0,1.0,0.0,40-60,,1.0,frame,bongo,60.0,40.0,frame4,bongo11,60.0,40.0,AFRAME125.jpg,ABONGO6.jpg,/static/Category_learning/Stimuli/Experimental_stims/frame/AFRAME125.jpg,/static/Category_learning/Stimuli/Experimental_stims/bongo/ABONGO6.jpg,0.0,bongo,frame,40.0,60.0,bongo11,frame4,40.0,60.0,0.0,257.034,1.034,,,,,,
251,,confirmation,,html-keyboard-response,251,604079,0.0-1.0-50.0-0.0-1.0-0.0,0,0,27789,,,,,,48.0,,,,,,,,,,,,,,,,,,,,,,,,,,,,,,,,257.5,0.466,,,,,,
252,,isi,,html-keyboard-response,252,605586,0.0-1.0-50.0-0.0-2.0,0,0,27789,,,,,,,,,,,,,,,,,,,,,,,,,,,,,,,,,,,,,,259.0,1.5,,,,,,
253,,feedback,,html-keyboard-response,253,606595,0.0-1.0-50.0-0.0-3.0-0.0,0,0,27789,,,,,,48.0,,,,,,,,,,,,,,,,,,,,,,,,,,,,,,,,260.0,1.0,,,,,,
254,,iti,,html-keyboard-response,254,607604,0.0-1.0-50.0-0.0-5.0,0,0,27789,,,,,,,,,,,,,,,,,,,,,,,,,,,,,,,,,,,,,,261.0,1.0,,,,,,
255,,choice,,html-keyboard-response,255,608641,0.0-1.0-51.0-0.0-0.0,0,0,27789,,1029.0,,,68.0,49.0,49.0,2000.0,2000.0,0.0,1.0,0.0,40-60,,0.0,dresser,lipstick,40.0,60.0,dresser3,lipstick1,20.0,80.0,ADRESSE79.jpg,P170102_hero.jpg,/static/Category_learning/Stimuli/Experimental_stims/dresser/ADRESSE79.jpg,/static/Category_learning/Stimuli/Experimental_stims/lipstick/P170102_hero.jpg,1.0,dresser,lipstick,40.0,60.0,dresser3,lipstick1,20.0,80.0,0.0,262.029,1.029,,,,,,
256,,confirmation,,html-keyboard-response,256,609121,0.0-1.0-51.0-0.0-1.0-0.0,0,0,27789,,,,,,49.0,,,,,,,,,,,,,,,,,,,,,,,,,,,,,,,,262.5,0.471,,,,,,
257,,isi,,html-keyboard-response,257,611131,0.0-1.0-51.0-0.0-2.0,0,0,27789,,,,,,,,,,,,,,,,,,,,,,,,,,,,,,,,,,,,,,264.5,2.0,,,,,,
258,,feedback,,html-keyboard-response,258,612141,0.0-1.0-51.0-0.0-3.0-0.0,0,0,27789,,,,,,49.0,,,,,,,,,,,,,,,,,,,,,,,,,,,,,,,,265.5,1.0,,,,,,
259,,iti,,html-keyboard-response,259,614150,0.0-1.0-51.0-0.0-5.0,0,0,27789,,,,,,,,,,,,,,,,,,,,,,,,,,,,,,,,,,,,,,267.5,2.0,,,,,,
260,,choice,,html-keyboard-response,260,615096,0.0-1.0-52.0-0.0-0.0,0,0,27789,,937.0,,,68.0,50.0,50.0,3500.0,1000.0,0.0,1.0,1.0,40-40,1.0,,fan,fan,40.0,40.0,fan5,fan1,20.0,60.0,Table_Fan.jpg,01393.fpx.jpg,/static/Category_learning/Stimuli/Experimental_stims/fan/Table_Fan.jpg,/static/Category_learning/Stimuli/Experimental_stims/fan/01393.fpx.jpg,1.0,fan,fan,40.0,40.0,fan5,fan1,20.0,60.0,0.0,268.437,0.937,,,,,,
261,,confirmation,,html-keyboard-response,261,615669,0.0-1.0-52.0-0.0-1.0-0.0,0,0,27789,,,,,,50.0,,,,,,,,,,,,,,,,,,,,,,,,,,,,,,,,269.0,0.563,,,,,,
262,,isi,,html-keyboard-response,262,619177,0.0-1.0-52.0-0.0-2.0,0,0,27789,,,,,,,,,,,,,,,,,,,,,,,,,,,,,,,,,,,,,,272.5,3.5,,,,,,
263,,feedback,,html-keyboard-response,263,620187,0.0-1.0-52.0-0.0-3.0-0.0,0,0,27789,,,,,,50.0,,,,,,,,,,,,,,,,,,,,,,,,,,,,,,,,273.5,1.0,,,,,,
264,,iti,,html-keyboard-response,264,621196,0.0-1.0-52.0-0.0-5.0,0,0,27789,,,,,,,,,,,,,,,,,,,,,,,,,,,,,,,,,,,,,,274.5,1.0,,,,,,
265,,choice,,html-keyboard-response,265,622049,0.0-1.0-53.0-0.0-0.0,0,0,27789,,846.0,,,75.0,51.0,51.0,2000.0,1000.0,0.0,1.0,0.0,60-60,,,makeup compact,microscope,60.0,60.0,makeup compact5,microscope3,40.0,40.0,P109965_hero.jpg,APDB.jpg,/static/Category_learning/Stimuli/Experimental_stims/makeup compact/P109965_hero.jpg,/static/Category_learning/Stimuli/Experimental_stims/microscope/APDB.jpg,0.0,microscope,makeup compact,60.0,60.0,microscope3,makeup compact5,40.0,40.0,0.0,275.346,0.846,,,,,,
266,,confirmation,,html-keyboard-response,266,622714,0.0-1.0-53.0-0.0-1.0-0.0,0,0,27789,,,,,,51.0,,,,,,,,,,,,,,,,,,,,,,,,,,,,,,,,276.0,0.654,,,,,,
267,,isi,,html-keyboard-response,267,624722,0.0-1.0-53.0-0.0-2.0,0,0,27789,,,,,,,,,,,,,,,,,,,,,,,,,,,,,,,,,,,,,,278.0,2.0,,,,,,
268,,feedback,,html-keyboard-response,268,625730,0.0-1.0-53.0-0.0-3.0-0.0,0,0,27789,,,,,,51.0,,,,,,,,,,,,,,,,,,,,,,,,,,,,,,,,279.0,1.0,,,,,,
269,,iti,,html-keyboard-response,269,626739,0.0-1.0-53.0-0.0-5.0,0,0,27789,,,,,,,,,,,,,,,,,,,,,,,,,,,,,,,,,,,,,,280.0,1.0,,,,,,
270,,choice,,html-keyboard-response,270,627522,0.0-1.0-54.0-0.0-0.0,0,0,27789,,775.0,,,68.0,52.0,52.0,1000.0,1500.0,0.0,1.0,0.0,40-80,,0.0,baby carriage,necklace,40.0,80.0,baby carriage9,necklace2,20.0,80.0,Antique baby Carriage 7.jpg,Anecklace7.jpg,/static/Category_learning/Stimuli/Experimental_stims/baby carriage/Antique baby Carriage 7.jpg,/static/Category_learning/Stimuli/Experimental_stims/necklace/Anecklace7.jpg,1.0,baby carriage,necklace,40.0,80.0,baby carriage9,necklace2,20.0,80.0,0.0,280.775,0.775,,,,,,
271,,confirmation,,html-keyboard-response,271,628257,0.0-1.0-54.0-0.0-1.0-0.0,0,0,27789,,,,,,52.0,,,,,,,,,,,,,,,,,,,,,,,,,,,,,,,,281.5,0.725,,,,,,
272,,isi,,html-keyboard-response,272,629265,0.0-1.0-54.0-0.0-2.0,0,0,27789,,,,,,,,,,,,,,,,,,,,,,,,,,,,,,,,,,,,,,282.5,1.0,,,,,,
273,,feedback,,html-keyboard-response,273,630274,0.0-1.0-54.0-0.0-3.0-0.0,0,0,27789,,,,,,52.0,,,,,,,,,,,,,,,,,,,,,,,,,,,,,,,,283.5,1.0,,,,,,
274,,iti,,html-keyboard-response,274,631781,0.0-1.0-54.0-0.0-5.0,0,0,27789,,,,,,,,,,,,,,,,,,,,,,,,,,,,,,,,,,,,,,285.0,1.5,,,,,,
275,,choice,,html-keyboard-response,275,632730,0.0-1.0-55.0-0.0-0.0,0,0,27789,,940.0,,,68.0,53.0,53.0,2000.0,1500.0,0.0,1.0,0.0,20-80,,0.0,watch,small table,20.0,80.0,watch12,small table12,40.0,80.0,snl003_MED.jpg,ATABLE54.jpg,/static/Category_learning/Stimuli/Experimental_stims/watch/snl003_MED.jpg,/static/Category_learning/Stimuli/Experimental_stims/small table/ATABLE54.jpg,1.0,watch,small table,20.0,80.0,watch12,small table12,40.0,80.0,0.0,285.94,0.94,,,,,,
276,,confirmation,,html-keyboard-response,276,633300,0.0-1.0-55.0-0.0-1.0-0.0,0,0,27789,,,,,,53.0,,,,,,,,,,,,,,,,,,,,,,,,,,,,,,,,286.5,0.56,,,,,,
277,,isi,,html-keyboard-response,277,635309,0.0-1.0-55.0-0.0-2.0,0,0,27789,,,,,,,,,,,,,,,,,,,,,,,,,,,,,,,,,,,,,,288.5,2.0,,,,,,
278,,feedback,,html-keyboard-response,278,636320,0.0-1.0-55.0-0.0-3.0-0.0,0,0,27789,,,,,,53.0,,,,,,,,,,,,,,,,,,,,,,,,,,,,,,,,289.5,1.0,,,,,,
279,,iti,,html-keyboard-response,279,637829,0.0-1.0-55.0-0.0-5.0,0,0,27789,,,,,,,,,,,,,,,,,,,,,,,,,,,,,,,,,,,,,,291.0,1.5,,,,,,
280,,choice,,html-keyboard-response,280,638682,0.0-1.0-56.0-0.0-0.0,0,0,27789,,844.0,,,75.0,54.0,54.0,1000.0,2000.0,0.0,1.0,1.0,20-20,1.0,,watch,watch,20.0,20.0,watch12,watch4,40.0,40.0,snl003_MED.jpg,B000EI2NBW.01._AA280_SCLZZZZZZZ_.jpg,/static/Category_learning/Stimuli/Experimental_stims/watch/snl003_MED.jpg,/static/Category_learning/Stimuli/Experimental_stims/watch/B000EI2NBW.01._AA280_SCLZZZZZZZ_.jpg,0.0,watch,watch,20.0,20.0,watch4,watch12,40.0,40.0,0.0,291.844,0.844,,,,,,
281,,confirmation,,html-keyboard-response,281,639351,0.0-1.0-56.0-0.0-1.0-0.0,0,0,27789,,,,,,54.0,,,,,,,,,,,,,,,,,,,,,,,,,,,,,,,,292.5,0.656,,,,,,
282,,isi,,html-keyboard-response,282,640359,0.0-1.0-56.0-0.0-2.0,0,0,27789,,,,,,,,,,,,,,,,,,,,,,,,,,,,,,,,,,,,,,293.5,1.0,,,,,,
283,,feedback,,html-keyboard-response,283,641369,0.0-1.0-56.0-0.0-3.0-0.0,0,0,27789,,,,,,54.0,,,,,,,,,,,,,,,,,,,,,,,,,,,,,,,,294.5,1.0,,,,,,
284,,iti,,html-keyboard-response,284,643378,0.0-1.0-56.0-0.0-5.0,0,0,27789,,,,,,,,,,,,,,,,,,,,,,,,,,,,,,,,,,,,,,296.5,2.0,,,,,,
285,,choice,,html-keyboard-response,285,644243,0.0-1.0-57.0-0.0-0.0,0,0,27789,,857.0,,,68.0,55.0,55.0,1000.0,3000.0,0.0,1.0,0.0,40-60,,1.0,motorcycle,bench,60.0,40.0,motorcycle13,bench9,60.0,40.0,2005-Buell-FireboltXB12R.jpg,26419898.thl.jpg,/static/Category_learning/Stimuli/Experimental_stims/motorcycle/2005-Buell-FireboltXB12R.jpg,/static/Category_learning/Stimuli/Experimental_stims/bench/26419898.thl.jpg,1.0,motorcycle,bench,60.0,40.0,motorcycle13,bench9,60.0,40.0,0.0,297.357,0.857,,,,,,
286,,confirmation,,html-keyboard-response,286,644896,0.0-1.0-57.0-0.0-1.0-0.0,0,0,27789,,,,,,55.0,,,,,,,,,,,,,,,,,,,,,,,,,,,,,,,,298.0,0.643,,,,,,
287,,isi,,html-keyboard-response,287,645904,0.0-1.0-57.0-0.0-2.0,0,0,27789,,,,,,,,,,,,,,,,,,,,,,,,,,,,,,,,,,,,,,299.0,1.0,,,,,,
288,,feedback,,html-keyboard-response,288,646914,0.0-1.0-57.0-0.0-3.0-0.0,0,0,27789,,,,,,55.0,,,,,,,,,,,,,,,,,,,,,,,,,,,,,,,,300.0,1.0,,,,,,
289,,iti,,html-keyboard-response,289,649923,0.0-1.0-57.0-0.0-5.0,0,0,27789,,,,,,,,,,,,,,,,,,,,,,,,,,,,,,,,,,,,,,303.0,3.0,,,,,,
290,,choice,,html-keyboard-response,290,650910,0.0-1.0-58.0-0.0-0.0,0,0,27789,,979.0,,,75.0,56.0,56.0,1000.0,1000.0,0.0,1.0,0.0,20-40,,1.0,baby carriage,train,40.0,20.0,baby carriage12,train4,60.0,40.0,Baby_Carriage-1.jpg,After-RHS-2-web.jpg,/static/Category_learning/Stimuli/Experimental_stims/baby carriage/Baby_Carriage-1.jpg,/static/Category_learning/Stimuli/Experimental_stims/train/After-RHS-2-web.jpg,0.0,train,baby carriage,20.0,40.0,train4,baby carriage12,40.0,60.0,0.0,303.979,0.979,,,,,,
291,,confirmation,,html-keyboard-response,291,651441,0.0-1.0-58.0-0.0-1.0-0.0,0,0,27789,,,,,,56.0,,,,,,,,,,,,,,,,,,,,,,,,,,,,,,,,304.5,0.521,,,,,,
292,,isi,,html-keyboard-response,292,652450,0.0-1.0-58.0-0.0-2.0,0,0,27789,,,,,,,,,,,,,,,,,,,,,,,,,,,,,,,,,,,,,,305.5,1.0,,,,,,
293,,feedback,,html-keyboard-response,293,653459,0.0-1.0-58.0-0.0-3.0-0.0,0,0,27789,,,,,,56.0,,,,,,,,,,,,,,,,,,,,,,,,,,,,,,,,306.5,1.0,,,,,,
294,,iti,,html-keyboard-response,294,654469,0.0-1.0-58.0-0.0-5.0,0,0,27789,,,,,,,,,,,,,,,,,,,,,,,,,,,,,,,,,,,,,,307.5,1.0,,,,,,
295,,choice,,html-keyboard-response,295,655577,0.0-1.0-59.0-0.0-0.0,0,0,27789,,1100.0,,,75.0,57.0,57.0,3000.0,2000.0,0.0,1.0,1.0,60-60,1.0,,motorcycle,motorcycle,60.0,60.0,motorcycle15,motorcycle13,80.0,60.0,2006-Buell-LightningXB12Sa.jpg,2005-Buell-FireboltXB12R.jpg,/static/Category_learning/Stimuli/Experimental_stims/motorcycle/2006-Buell-LightningXB12Sa.jpg,/static/Category_learning/Stimuli/Experimental_stims/motorcycle/2005-Buell-FireboltXB12R.jpg,0.0,motorcycle,motorcycle,60.0,60.0,motorcycle13,motorcycle15,60.0,80.0,0.0,308.6,1.1,,,,,,
296,,confirmation,,html-keyboard-response,296,655986,0.0-1.0-59.0-0.0-1.0-0.0,0,0,27789,,,,,,57.0,,,,,,,,,,,,,,,,,,,,,,,,,,,,,,,,309.0,0.4,,,,,,
297,,isi,,html-keyboard-response,297,658996,0.0-1.0-59.0-0.0-2.0,0,0,27789,,,,,,,,,,,,,,,,,,,,,,,,,,,,,,,,,,,,,,312.0,3.0,,,,,,
298,,feedback,,html-keyboard-response,298,660005,0.0-1.0-59.0-0.0-3.0-0.0,0,0,27789,,,,,,57.0,,,,,,,,,,,,,,,,,,,,,,,,,,,,,,,,313.0,1.0,,,,,,
299,,iti,,html-keyboard-response,299,662014,0.0-1.0-59.0-0.0-5.0,0,0,27789,,,,,,,,,,,,,,,,,,,,,,,,,,,,,,,,,,,,,,315.0,2.0,,,,,,
300,,choice,,html-keyboard-response,300,662918,0.0-1.0-60.0-0.0-0.0,0,0,27789,,895.0,,,68.0,58.0,58.0,2000.0,1000.0,0.0,1.0,0.0,40-80,,0.0,flashlight,seashell,40.0,80.0,flashlight13,seashell13,60.0,100.0,834808_sk_lg.jpg,coquillage22.jpg,/static/Category_learning/Stimuli/Experimental_stims/flashlight/834808_sk_lg.jpg,/static/Category_learning/Stimuli/Experimental_stims/seashell/coquillage22.jpg,1.0,flashlight,seashell,40.0,80.0,flashlight13,seashell13,60.0,100.0,0.0,315.895,0.895,,,,,,
301,,confirmation,,html-keyboard-response,301,663533,0.0-1.0-60.0-0.0-1.0-0.0,0,0,27789,,,,,,58.0,,,,,,,,,,,,,,,,,,,,,,,,,,,,,,,,316.5,0.605,,,,,,
302,,isi,,html-keyboard-response,302,665542,0.0-1.0-60.0-0.0-2.0,0,0,27789,,,,,,,,,,,,,,,,,,,,,,,,,,,,,,,,,,,,,,318.5,2.0,,,,,,
303,,feedback,,html-keyboard-response,303,666559,0.0-1.0-60.0-0.0-3.0-0.0,0,0,27789,,,,,,58.0,,,,,,,,,,,,,,,,,,,,,,,,,,,,,,,,319.5,1.0,,,,,,
304,,iti,,html-keyboard-response,304,667569,0.0-1.0-60.0-0.0-5.0,0,0,27789,,,,,,,,,,,,,,,,,,,,,,,,,,,,,,,,,,,,,,320.5,1.0,,,,,,
305,,choice,,html-keyboard-response,305,668596,0.0-1.0-61.0-0.0-0.0,0,0,27789,,1020.0,,,75.0,59.0,59.0,1000.0,1500.0,0.0,1.0,0.0,20-60,,0.0,watch,key chain,20.0,60.0,watch14,key chain14,0.0,40.0,HC06.jpg,Jif Keychain 285.jpg,/static/Category_learning/Stimuli/Experimental_stims/watch/HC06.jpg,/static/Category_learning/Stimuli/Experimental_stims/key chain/Jif Keychain 285.jpg,0.0,key chain,watch,60.0,20.0,key chain14,watch14,40.0,0.0,0.0,321.52,1.02,,,,,,
306,,confirmation,,html-keyboard-response,306,669084,0.0-1.0-61.0-0.0-1.0-0.0,0,0,27789,,,,,,59.0,,,,,,,,,,,,,,,,,,,,,,,,,,,,,,,,322.0,0.48,,,,,,
307,,isi,,html-keyboard-response,307,670100,0.0-1.0-61.0-0.0-2.0,0,0,27789,,,,,,,,,,,,,,,,,,,,,,,,,,,,,,,,,,,,,,323.0,1.0,,,,,,
308,,feedback,,html-keyboard-response,308,671109,0.0-1.0-61.0-0.0-3.0-0.0,0,0,27789,,,,,,59.0,,,,,,,,,,,,,,,,,,,,,,,,,,,,,,,,324.0,1.0,,,,,,
309,,iti,,html-keyboard-response,309,672618,0.0-1.0-61.0-0.0-5.0,0,0,27789,,,,,,,,,,,,,,,,,,,,,,,,,,,,,,,,,,,,,,325.5,1.5,,,,,,
310,,choice,,html-keyboard-response,310,673717,0.0-1.0-62.0-0.0-0.0,0,0,27789,,1091.0,,,68.0,60.0,60.0,1500.0,1000.0,0.0,1.0,0.0,20-80,,0.0,watch,small table,20.0,80.0,watch8,small table2,40.0,100.0,2239.jpg,Atable126.jpg,/static/Category_learning/Stimuli/Experimental_stims/watch/2239.jpg,/static/Category_learning/Stimuli/Experimental_stims/small table/Atable126.jpg,1.0,watch,small table,20.0,80.0,watch8,small table2,40.0,100.0,0.0,326.591,1.091,,,,,,
311,,confirmation,,html-keyboard-response,311,674136,0.0-1.0-62.0-0.0-1.0-0.0,0,0,27789,,,,,,60.0,,,,,,,,,,,,,,,,,,,,,,,,,,,,,,,,327.0,0.409,,,,,,
312,,isi,,html-keyboard-response,312,675644,0.0-1.0-62.0-0.0-2.0,0,0,27789,,,,,,,,,,,,,,,,,,,,,,,,,,,,,,,,,,,,,,328.5,1.5,,,,,,
313,,feedback,,html-keyboard-response,313,676653,0.0-1.0-62.0-0.0-3.0-0.0,0,0,27789,,,,,,60.0,,,,,,,,,,,,,,,,,,,,,,,,,,,,,,,,329.5,1.0,,,,,,
314,,iti,,html-keyboard-response,314,677662,0.0-1.0-62.0-0.0-5.0,0,0,27789,,,,,,,,,,,,,,,,,,,,,,,,,,,,,,,,,,,,,,330.5,1.0,,,,,,
315,,choice,,html-keyboard-response,315,679114,0.0-1.0-63.0-0.0-0.0,0,0,27789,,1443.0,,,68.0,61.0,61.0,1500.0,2000.0,0.0,1.0,1.0,80-80,0.0,,sofa,poker card,80.0,80.0,sofa15,poker card4,100.0,60.0,APEACHLOV.jpg,22864728.thl.jpg,/static/Category_learning/Stimuli/Experimental_stims/sofa/APEACHLOV.jpg,/static/Category_learning/Stimuli/Experimental_stims/poker card/22864728.thl.jpg,1.0,sofa,poker card,80.0,80.0,sofa15,poker card4,100.0,60.0,0.0,331.943,1.443,,,,,,
316,,confirmation,,html-keyboard-response,316,679179,0.0-1.0-63.0-0.0-1.0-0.0,0,0,27789,,,,,,61.0,,,,,,,,,,,,,,,,,,,,,,,,,,,,,,,,332.0,0.057,,,,,,
317,,isi,,html-keyboard-response,317,680688,0.0-1.0-63.0-0.0-2.0,0,0,27789,,,,,,,,,,,,,,,,,,,,,,,,,,,,,,,,,,,,,,333.5,1.5,,,,,,
318,,feedback,,html-keyboard-response,318,681697,0.0-1.0-63.0-0.0-3.0-0.0,0,0,27789,,,,,,61.0,,,,,,,,,,,,,,,,,,,,,,,,,,,,,,,,334.5,1.0,,,,,,
319,,iti,,html-keyboard-response,319,683706,0.0-1.0-63.0-0.0-5.0,0,0,27789,,,,,,,,,,,,,,,,,,,,,,,,,,,,,,,,,,,,,,336.5,2.0,,,,,,
320,,choice,,html-keyboard-response,320,684930,0.0-1.0-64.0-0.0-0.0,0,0,27789,,1216.0,,,75.0,62.0,62.0,2000.0,1500.0,0.0,1.0,1.0,40-40,0.0,,baby carriage,dresser,40.0,40.0,baby carriage9,dresser3,20.0,20.0,Antique baby Carriage 7.jpg,ADRESSE79.jpg,/static/Category_learning/Stimuli/Experimental_stims/baby carriage/Antique baby Carriage 7.jpg,/static/Category_learning/Stimuli/Experimental_stims/dresser/ADRESSE79.jpg,0.0,dresser,baby carriage,40.0,40.0,dresser3,baby carriage9,20.0,20.0,0.0,337.716,1.216,,,,,,
321,,confirmation,,html-keyboard-response,321,685223,0.0-1.0-64.0-0.0-1.0-0.0,0,0,27789,,,,,,62.0,,,,,,,,,,,,,,,,,,,,,,,,,,,,,,,,338.0,0.284,,,,,,
322,,isi,,html-keyboard-response,322,687231,0.0-1.0-64.0-0.0-2.0,0,0,27789,,,,,,,,,,,,,,,,,,,,,,,,,,,,,,,,,,,,,,340.0,2.0,,,,,,
323,,feedback,,html-keyboard-response,323,688241,0.0-1.0-64.0-0.0-3.0-0.0,0,0,27789,,,,,,62.0,,,,,,,,,,,,,,,,,,,,,,,,,,,,,,,,341.0,1.0,,,,,,
324,,iti,,html-keyboard-response,324,689748,0.0-1.0-64.0-0.0-5.0,0,0,27789,,,,,,,,,,,,,,,,,,,,,,,,,,,,,,,,,,,,,,342.5,1.5,,,,,,
325,,choice,,html-keyboard-response,325,690857,0.0-1.0-65.0-0.0-0.0,0,0,27789,,1102.0,,,75.0,63.0,63.0,3000.0,3000.0,0.0,1.0,0.0,20-60,,1.0,key chain,stool,60.0,20.0,key chain9,stool12,80.0,0.0,sfx8832-ferrari-shield-keychain.jpg,henrybar_stool1.jpg,/static/Category_learning/Stimuli/Experimental_stims/key chain/sfx8832-ferrari-shield-keychain.jpg,/static/Category_learning/Stimuli/Experimental_stims/stool/henrybar_stool1.jpg,0.0,stool,key chain,20.0,60.0,stool12,key chain9,0.0,80.0,0.0,343.602,1.102,,,,,,
326,,confirmation,,html-keyboard-response,326,691265,0.0-1.0-65.0-0.0-1.0-0.0,0,0,27789,,,,,,63.0,,,,,,,,,,,,,,,,,,,,,,,,,,,,,,,,344.0,0.398,,,,,,
327,,isi,,html-keyboard-response,327,694274,0.0-1.0-65.0-0.0-2.0,0,0,27789,,,,,,,,,,,,,,,,,,,,,,,,,,,,,,,,,,,,,,347.0,3.0,,,,,,
328,,feedback,,html-keyboard-response,328,695289,0.0-1.0-65.0-0.0-3.0-0.0,0,0,27789,,,,,,63.0,,,,,,,,,,,,,,,,,,,,,,,,,,,,,,,,348.0,1.0,,,,,,
329,,iti,,html-keyboard-response,329,698298,0.0-1.0-65.0-0.0-5.0,0,0,27789,,,,,,,,,,,,,,,,,,,,,,,,,,,,,,,,,,,,,,351.0,3.0,,,,,,
330,,block_over,,html-keyboard-response,330,759742,0.0-1.0-65.0-0.0-7.0-0.0,0,0,27789,,61430.0,,,68.0,63.0,,,,,,,,,,,,,,,,,,,,,,,,,,,,,,,,,,,,,,,
331,,start_run,,html-keyboard-response,331,765927,0.0-1.0-65.0-0.0-7.0-1.0,0,0,27789,,6178.0,,,84.0,,,,,,,,,,,,,,,,,,,,,,,,,,,,,,,,,,,,,,,,
332,,choice,,html-keyboard-response,332,766437,0.0-1.0-66.0-0.0-0.0,0,0,27789,,503.0,,,68.0,64.0,65.0,1000.0,1500.0,0.0,2.0,0.0,20-60,,0.0,tent,hammer,20.0,60.0,tent10,hammer4,0.0,60.0,TENT-DUTCH-GD1-1.jpg,hammernew01.jpg,/static/Category_learning/Stimuli/Experimental_stims/tent/TENT-DUTCH-GD1-1.jpg,/static/Category_learning/Stimuli/Experimental_stims/hammer/hammernew01.jpg,1.0,tent,hammer,20.0,60.0,tent10,hammer4,0.0,60.0,0.0,0.503,0.503,,,,,,
333,,confirmation,,html-keyboard-response,333,767444,0.0-1.0-66.0-0.0-1.0-0.0,0,0,27789,,,,,,64.0,,,,,,,,,,,,,,,,,,,,,,,,,,,,,,,,1.5,0.997,,,,,,
334,,isi,,html-keyboard-response,334,768452,0.0-1.0-66.0-0.0-2.0,0,0,27789,,,,,,,,,,,,,,,,,,,,,,,,,,,,,,,,,,,,,,2.5,1.0,,,,,,
335,,feedback,,html-keyboard-response,335,769460,0.0-1.0-66.0-0.0-3.0-0.0,0,0,27789,,,,,,64.0,,,,,,,,,,,,,,,,,,,,,,,,,,,,,,,,3.5,1.0,,,,,,
336,,iti,,html-keyboard-response,336,770979,0.0-1.0-66.0-0.0-5.0,0,0,27789,,,,,,,,,,,,,,,,,,,,,,,,,,,,,,,,,,,,,,5.0,1.5,,,,,,
337,,choice,,html-keyboard-response,337,771941,0.0-1.0-67.0-0.0-0.0,0,0,27789,,955.0,,,75.0,65.0,66.0,3000.0,1000.0,0.0,2.0,0.0,40-80,,1.0,patio lounge chair,bench,80.0,40.0,patio lounge chair11,bench3,100.0,20.0,51830.jpg,26419540.thl.jpg,/static/Category_learning/Stimuli/Experimental_stims/patio lounge chair/51830.jpg,/static/Category_learning/Stimuli/Experimental_stims/bench/26419540.thl.jpg,0.0,bench,patio lounge chair,40.0,80.0,bench3,patio lounge chair11,20.0,100.0,0.0,5.955,0.955,,,,,,
338,,confirmation,,html-keyboard-response,338,772495,0.0-1.0-67.0-0.0-1.0-0.0,0,0,27789,,,,,,65.0,,,,,,,,,,,,,,,,,,,,,,,,,,,,,,,,6.5,0.545,,,,,,
339,,isi,,html-keyboard-response,339,775504,0.0-1.0-67.0-0.0-2.0,0,0,27789,,,,,,,,,,,,,,,,,,,,,,,,,,,,,,,,,,,,,,9.5,3.0,,,,,,
340,,feedback,,html-keyboard-response,340,776514,0.0-1.0-67.0-0.0-3.0-0.0,0,0,27789,,,,,,65.0,,,,,,,,,,,,,,,,,,,,,,,,,,,,,,,,10.5,1.0,,,,,,
341,,iti,,html-keyboard-response,341,777524,0.0-1.0-67.0-0.0-5.0,0,0,27789,,,,,,,,,,,,,,,,,,,,,,,,,,,,,,,,,,,,,,11.5,1.0,,,,,,
342,,choice,,html-keyboard-response,342,778441,0.0-1.0-68.0-0.0-0.0,0,0,27789,,911.0,,,68.0,66.0,67.0,1500.0,1500.0,0.0,2.0,0.0,20-20,,,trumpet,watch,20.0,20.0,trumpet12,watch6,40.0,20.0,hornabariton.jpg,B0000X04VC.01-A4LKQQKJ91IUZ._AA280_SCLZZZZZZZ_.jpg,/static/Category_learning/Stimuli/Experimental_stims/trumpet/hornabariton.jpg,/static/Category_learning/Stimuli/Experimental_stims/watch/B0000X04VC.01-A4LKQQKJ91IUZ._AA280_SCLZZZZZZZ_.jpg,1.0,trumpet,watch,20.0,20.0,trumpet12,watch6,40.0,20.0,0.0,12.411,0.911,,,,,,
343,,confirmation,,html-keyboard-response,343,779039,0.0-1.0-68.0-0.0-1.0-0.0,0,0,27789,,,,,,66.0,,,,,,,,,,,,,,,,,,,,,,,,,,,,,,,,13.0,0.589,,,,,,
344,,isi,,html-keyboard-response,344,780548,0.0-1.0-68.0-0.0-2.0,0,0,27789,,,,,,,,,,,,,,,,,,,,,,,,,,,,,,,,,,,,,,14.5,1.5,,,,,,
345,,feedback,,html-keyboard-response,345,781558,0.0-1.0-68.0-0.0-3.0-0.0,0,0,27789,,,,,,66.0,,,,,,,,,,,,,,,,,,,,,,,,,,,,,,,,15.5,1.0,,,,,,
346,,iti,,html-keyboard-response,346,783077,0.0-1.0-68.0-0.0-5.0,0,0,27789,,,,,,,,,,,,,,,,,,,,,,,,,,,,,,,,,,,,,,17.0,1.5,,,,,,
347,,choice,,html-keyboard-response,347,783990,0.0-1.0-69.0-0.0-0.0,0,0,27789,,904.0,,,75.0,67.0,68.0,2000.0,1500.0,0.0,2.0,0.0,20-80,,0.0,yarn,small table,20.0,80.0,yarn1,small table8,40.0,60.0,corn_yarn.jpg,ATABLE8.jpg,/static/Category_learning/Stimuli/Experimental_stims/yarn/corn_yarn.jpg,/static/Category_learning/Stimuli/Experimental_stims/small table/ATABLE8.jpg,0.0,small table,yarn,80.0,20.0,small table8,yarn1,60.0,40.0,0.0,17.904,0.904,,,,,,
348,,confirmation,,html-keyboard-response,348,784597,0.0-1.0-69.0-0.0-1.0-0.0,0,0,27789,,,,,,67.0,,,,,,,,,,,,,,,,,,,,,,,,,,,,,,,,18.5,0.596,,,,,,
349,,isi,,html-keyboard-response,349,786605,0.0-1.0-69.0-0.0-2.0,0,0,27789,,,,,,,,,,,,,,,,,,,,,,,,,,,,,,,,,,,,,,20.5,2.0,,,,,,
350,,feedback,,html-keyboard-response,350,787614,0.0-1.0-69.0-0.0-3.0-0.0,0,0,27789,,,,,,67.0,,,,,,,,,,,,,,,,,,,,,,,,,,,,,,,,21.5,1.0,,,,,,
351,,iti,,html-keyboard-response,351,789123,0.0-1.0-69.0-0.0-5.0,0,0,27789,,,,,,,,,,,,,,,,,,,,,,,,,,,,,,,,,,,,,,23.0,1.5,,,,,,
352,,choice,,html-keyboard-response,352,789962,0.0-1.0-70.0-0.0-0.0,0,0,27789,,830.0,,,68.0,68.0,69.0,1000.0,2000.0,0.0,2.0,0.0,60-60,,,makeup compact,hat,60.0,60.0,makeup compact12,hat5,80.0,40.0,P139103_hero.jpg,AREDHAT4.jpg,/static/Category_learning/Stimuli/Experimental_stims/makeup compact/P139103_hero.jpg,/static/Category_learning/Stimuli/Experimental_stims/hat/AREDHAT4.jpg,1.0,makeup compact,hat,60.0,60.0,makeup compact12,hat5,80.0,40.0,0.0,23.83,0.83,,,,,,
353,,confirmation,,html-keyboard-response,353,790642,0.0-1.0-70.0-0.0-1.0-0.0,0,0,27789,,,,,,68.0,,,,,,,,,,,,,,,,,,,,,,,,,,,,,,,,24.5,0.67,,,,,,
354,,isi,,html-keyboard-response,354,791650,0.0-1.0-70.0-0.0-2.0,0,0,27789,,,,,,,,,,,,,,,,,,,,,,,,,,,,,,,,,,,,,,25.5,1.0,,,,,,
355,,feedback,,html-keyboard-response,355,792660,0.0-1.0-70.0-0.0-3.0-0.0,0,0,27789,,,,,,68.0,,,,,,,,,,,,,,,,,,,,,,,,,,,,,,,,26.5,1.0,,,,,,
356,,iti,,html-keyboard-response,356,794669,0.0-1.0-70.0-0.0-5.0,0,0,27789,,,,,,,,,,,,,,,,,,,,,,,,,,,,,,,,,,,,,,28.5,2.0,,,,,,
357,,choice,,html-keyboard-response,357,795425,0.0-1.0-71.0-0.0-0.0,0,0,27789,,749.0,,,75.0,69.0,70.0,1000.0,1000.0,0.0,2.0,0.0,40-60,,0.0,dresser,lipstick,40.0,60.0,dresser4,lipstick5,60.0,40.0,ADRESSE40.jpg,P35719_hero.jpg,/static/Category_learning/Stimuli/Experimental_stims/dresser/ADRESSE40.jpg,/static/Category_learning/Stimuli/Experimental_stims/lipstick/P35719_hero.jpg,0.0,lipstick,dresser,60.0,40.0,lipstick5,dresser4,40.0,60.0,0.0,29.249,0.749,,,,,,
358,,confirmation,,html-keyboard-response,358,796185,0.0-1.0-71.0-0.0-1.0-0.0,0,0,27789,,,,,,69.0,,,,,,,,,,,,,,,,,,,,,,,,,,,,,,,,30.0,0.751,,,,,,
359,,isi,,html-keyboard-response,359,797194,0.0-1.0-71.0-0.0-2.0,0,0,27789,,,,,,,,,,,,,,,,,,,,,,,,,,,,,,,,,,,,,,31.0,1.0,,,,,,
360,,feedback,,html-keyboard-response,360,798203,0.0-1.0-71.0-0.0-3.0-0.0,0,0,27789,,,,,,69.0,,,,,,,,,,,,,,,,,,,,,,,,,,,,,,,,32.0,1.0,,,,,,
361,,iti,,html-keyboard-response,361,799212,0.0-1.0-71.0-0.0-5.0,0,0,27789,,,,,,,,,,,,,,,,,,,,,,,,,,,,,,,,,,,,,,33.0,1.0,,,,,,
362,,choice,,html-keyboard-response,362,800368,0.0-1.0-72.0-0.0-0.0,0,0,27789,,1146.0,,,68.0,70.0,71.0,1000.0,1500.0,0.0,2.0,1.0,40-40,1.0,,bench,bench,40.0,40.0,bench5,bench3,20.0,20.0,APARKBEN8.jpg,26419540.thl.jpg,/static/Category_learning/Stimuli/Experimental_stims/bench/APARKBEN8.jpg,/static/Category_learning/Stimuli/Experimental_stims/bench/26419540.thl.jpg,1.0,bench,bench,40.0,40.0,bench5,bench3,20.0,20.0,0.0,34.146,1.146,,,,,,
363,,confirmation,,html-keyboard-response,363,800730,0.0-1.0-72.0-0.0-1.0-0.0,0,0,27789,,,,,,70.0,,,,,,,,,,,,,,,,,,,,,,,,,,,,,,,,34.5,0.354,,,,,,
364,,isi,,html-keyboard-response,364,801740,0.0-1.0-72.0-0.0-2.0,0,0,27789,,,,,,,,,,,,,,,,,,,,,,,,,,,,,,,,,,,,,,35.5,1.0,,,,,,
365,,feedback,,html-keyboard-response,365,802747,0.0-1.0-72.0-0.0-3.0-0.0,0,0,27789,,,,,,70.0,,,,,,,,,,,,,,,,,,,,,,,,,,,,,,,,36.5,1.0,,,,,,
366,,iti,,html-keyboard-response,366,804256,0.0-1.0-72.0-0.0-5.0,0,0,27789,,,,,,,,,,,,,,,,,,,,,,,,,,,,,,,,,,,,,,38.0,1.5,,,,,,
367,,choice,,html-keyboard-response,367,805496,0.0-1.0-73.0-0.0-0.0,0,0,27789,,1232.0,,,68.0,71.0,72.0,2000.0,2000.0,0.0,2.0,0.0,40-60,,1.0,hat,desk,60.0,40.0,hat10,desk11,80.0,60.0,Atornhat3.jpg,Writing_Desk_280_Cutout_Sideview_half.jpg,/static/Category_learning/Stimuli/Experimental_stims/hat/Atornhat3.jpg,/static/Category_learning/Stimuli/Experimental_stims/desk/Writing_Desk_280_Cutout_Sideview_half.jpg,1.0,hat,desk,60.0,40.0,hat10,desk11,80.0,60.0,0.0,39.232,1.232,,,,,,
368,,confirmation,,html-keyboard-response,368,805772,0.0-1.0-73.0-0.0-1.0-0.0,0,0,27789,,,,,,71.0,,,,,,,,,,,,,,,,,,,,,,,,,,,,,,,,39.5,0.268,,,,,,
369,,isi,,html-keyboard-response,369,807780,0.0-1.0-73.0-0.0-2.0,0,0,27789,,,,,,,,,,,,,,,,,,,,,,,,,,,,,,,,,,,,,,41.5,2.0,,,,,,
370,,feedback,,html-keyboard-response,370,808789,0.0-1.0-73.0-0.0-3.0-0.0,0,0,27789,,,,,,71.0,,,,,,,,,,,,,,,,,,,,,,,,,,,,,,,,42.5,1.0,,,,,,
371,,iti,,html-keyboard-response,371,810796,0.0-1.0-73.0-0.0-5.0,0,0,27789,,,,,,,,,,,,,,,,,,,,,,,,,,,,,,,,,,,,,,44.5,2.0,,,,,,
372,,choice,,html-keyboard-response,372,811868,0.0-1.0-74.0-0.0-0.0,0,0,27789,,1063.0,,,68.0,72.0,73.0,1500.0,1000.0,0.0,2.0,1.0,60-60,1.0,,makeup compact,makeup compact,60.0,60.0,makeup compact12,makeup compact3,80.0,40.0,P139103_hero.jpg,P181006_hero.jpg,/static/Category_learning/Stimuli/Experimental_stims/makeup compact/P139103_hero.jpg,/static/Category_learning/Stimuli/Experimental_stims/makeup compact/P181006_hero.jpg,1.0,makeup compact,makeup compact,60.0,60.0,makeup compact12,makeup compact3,80.0,40.0,0.0,45.563,1.063,,,,,,
373,,confirmation,,html-keyboard-response,373,812314,0.0-1.0-74.0-0.0-1.0-0.0,0,0,27789,,,,,,72.0,,,,,,,,,,,,,,,,,,,,,,,,,,,,,,,,46.0,0.437,,,,,,
374,,isi,,html-keyboard-response,374,813822,0.0-1.0-74.0-0.0-2.0,0,0,27789,,,,,,,,,,,,,,,,,,,,,,,,,,,,,,,,,,,,,,47.5,1.5,,,,,,
375,,feedback,,html-keyboard-response,375,814832,0.0-1.0-74.0-0.0-3.0-0.0,0,0,27789,,,,,,72.0,,,,,,,,,,,,,,,,,,,,,,,,,,,,,,,,48.5,1.0,,,,,,
376,,iti,,html-keyboard-response,376,815841,0.0-1.0-74.0-0.0-5.0,0,0,27789,,,,,,,,,,,,,,,,,,,,,,,,,,,,,,,,,,,,,,49.5,1.0,,,,,,
377,,choice,,html-keyboard-response,377,816993,0.0-1.0-75.0-0.0-0.0,0,0,27789,,1143.0,,,75.0,73.0,74.0,1500.0,1000.0,0.0,2.0,1.0,20-20,1.0,,stool,stool,20.0,20.0,stool8,stool12,0.0,0.0,ASTOOL33.jpg,henrybar_stool1.jpg,/static/Category_learning/Stimuli/Experimental_stims/stool/ASTOOL33.jpg,/static/Category_learning/Stimuli/Experimental_stims/stool/henrybar_stool1.jpg,0.0,stool,stool,20.0,20.0,stool12,stool8,0.0,0.0,0.0,50.643,1.143,,,,,,
378,,confirmation,,html-keyboard-response,378,817359,0.0-1.0-75.0-0.0-1.0-0.0,0,0,27789,,,,,,73.0,,,,,,,,,,,,,,,,,,,,,,,,,,,,,,,,51.0,0.357,,,,,,
379,,isi,,html-keyboard-response,379,818867,0.0-1.0-75.0-0.0-2.0,0,0,27789,,,,,,,,,,,,,,,,,,,,,,,,,,,,,,,,,,,,,,52.5,1.5,,,,,,
380,,feedback,,html-keyboard-response,380,819874,0.0-1.0-75.0-0.0-3.0-0.0,0,0,27789,,,,,,73.0,,,,,,,,,,,,,,,,,,,,,,,,,,,,,,,,53.5,1.0,,,,,,
381,,iti,,html-keyboard-response,381,820883,0.0-1.0-75.0-0.0-5.0,0,0,27789,,,,,,,,,,,,,,,,,,,,,,,,,,,,,,,,,,,,,,54.5,1.0,,,,,,
382,,choice,,html-keyboard-response,382,821709,0.0-1.0-76.0-0.0-0.0,0,0,27789,,817.0,,,75.0,74.0,75.0,1000.0,1000.0,0.0,2.0,0.0,60-60,,,microscope,hat,60.0,60.0,microscope8,hat14,60.0,60.0,AMICROS21.jpg,Ahat136.jpg,/static/Category_learning/Stimuli/Experimental_stims/microscope/AMICROS21.jpg,/static/Category_learning/Stimuli/Experimental_stims/hat/Ahat136.jpg,0.0,hat,microscope,60.0,60.0,hat14,microscope8,60.0,60.0,0.0,55.317,0.817,,,,,,
383,,confirmation,,html-keyboard-response,383,822401,0.0-1.0-76.0-0.0-1.0-0.0,0,0,27789,,,,,,74.0,,,,,,,,,,,,,,,,,,,,,,,,,,,,,,,,56.0,0.683,,,,,,
384,,isi,,html-keyboard-response,384,823410,0.0-1.0-76.0-0.0-2.0,0,0,27789,,,,,,,,,,,,,,,,,,,,,,,,,,,,,,,,,,,,,,57.0,1.0,,,,,,
385,,feedback,,html-keyboard-response,385,824419,0.0-1.0-76.0-0.0-3.0-0.0,0,0,27789,,,,,,74.0,,,,,,,,,,,,,,,,,,,,,,,,,,,,,,,,58.0,1.0,,,,,,
386,,iti,,html-keyboard-response,386,825428,0.0-1.0-76.0-0.0-5.0,0,0,27789,,,,,,,,,,,,,,,,,,,,,,,,,,,,,,,,,,,,,,59.0,1.0,,,,,,
387,,choice,,html-keyboard-response,387,826865,0.0-1.0-77.0-0.0-0.0,0,0,27789,,1428.0,,,68.0,75.0,76.0,2000.0,2000.0,0.0,2.0,0.0,40-60,,0.0,door knob,frame,40.0,60.0,door knob8,frame10,40.0,80.0,pro_l_116_medeco437ul.jpg,AFRAME107.jpg,/static/Category_learning/Stimuli/Experimental_stims/door knob/pro_l_116_medeco437ul.jpg,/static/Category_learning/Stimuli/Experimental_stims/frame/AFRAME107.jpg,1.0,door knob,frame,40.0,60.0,door knob8,frame10,40.0,80.0,0.0,60.428,1.428,,,,,,
388,,confirmation,,html-keyboard-response,388,826945,0.0-1.0-77.0-0.0-1.0-0.0,0,0,27789,,,,,,75.0,,,,,,,,,,,,,,,,,,,,,,,,,,,,,,,,60.5,0.072,,,,,,
389,,isi,,html-keyboard-response,389,828954,0.0-1.0-77.0-0.0-2.0,0,0,27789,,,,,,,,,,,,,,,,,,,,,,,,,,,,,,,,,,,,,,62.5,2.0,,,,,,
390,,feedback,,html-keyboard-response,390,829963,0.0-1.0-77.0-0.0-3.0-0.0,0,0,27789,,,,,,75.0,,,,,,,,,,,,,,,,,,,,,,,,,,,,,,,,63.5,1.0,,,,,,
391,,iti,,html-keyboard-response,391,831971,0.0-1.0-77.0-0.0-5.0,0,0,27789,,,,,,,,,,,,,,,,,,,,,,,,,,,,,,,,,,,,,,65.5,2.0,,,,,,
392,,choice,,html-keyboard-response,392,832877,0.0-1.0-78.0-0.0-0.0,0,0,27789,,898.0,,,75.0,76.0,77.0,1500.0,2000.0,0.0,2.0,0.0,40-60,,0.0,bench,hat,40.0,60.0,bench6,hat3,20.0,60.0,26370121.thl.jpg,Astrawhat49.jpg,/static/Category_learning/Stimuli/Experimental_stims/bench/26370121.thl.jpg,/static/Category_learning/Stimuli/Experimental_stims/hat/Astrawhat49.jpg,0.0,hat,bench,60.0,40.0,hat3,bench6,60.0,20.0,0.0,66.398,0.898,,,,,,
393,,confirmation,,html-keyboard-response,393,833490,0.0-1.0-78.0-0.0-1.0-0.0,0,0,27789,,,,,,76.0,,,,,,,,,,,,,,,,,,,,,,,,,,,,,,,,67.0,0.602,,,,,,
394,,isi,,html-keyboard-response,394,834998,0.0-1.0-78.0-0.0-2.0,0,0,27789,,,,,,,,,,,,,,,,,,,,,,,,,,,,,,,,,,,,,,68.5,1.5,,,,,,
395,,feedback,,html-keyboard-response,395,836007,0.0-1.0-78.0-0.0-3.0-0.0,0,0,27789,,,,,,76.0,,,,,,,,,,,,,,,,,,,,,,,,,,,,,,,,69.5,1.0,,,,,,
396,,iti,,html-keyboard-response,396,838017,0.0-1.0-78.0-0.0-5.0,0,0,27789,,,,,,,,,,,,,,,,,,,,,,,,,,,,,,,,,,,,,,71.5,2.0,,,,,,
397,,choice,,html-keyboard-response,397,839527,0.0-1.0-79.0-0.0-0.0,0,0,27789,,,,,,77.0,78.0,2000.0,1500.0,0.0,2.0,0.0,40-80,,1.0,nail polish,baby carriage,80.0,40.0,nail polish15,baby carriage1,60.0,40.0,MA_NP_WSD.jpg,babycarriage16.jpg,/static/Category_learning/Stimuli/Experimental_stims/nail polish/MA_NP_WSD.jpg,/static/Category_learning/Stimuli/Experimental_stims/baby carriage/babycarriage16.jpg,,,,,,,,,,1.0,73.0,1.5,,,,,,
398,,isi,,html-keyboard-response,398,841538,0.0-1.0-79.0-0.0-2.0,0,0,27789,,,,,,,,,,,,,,,,,,,,,,,,,,,,,,,,,,,,,,75.0,2.0,,,,,,
399,,no_response,,html-keyboard-response,399,842547,0.0-1.0-79.0-0.0-4.0-0.0,0,0,27789,,,,,,,,,,,,,,,,,,,,,,,,,,,,,,,,,,,,,,76.0,1.0,,,,,,
400,,iti,,html-keyboard-response,400,844090,0.0-1.0-79.0-0.0-5.0,0,0,27789,,,,,,,,,,,,,,,,,,,,,,,,,,,,,,,,,,,,,,77.5,1.5,,,,,,
401,,choice,,html-keyboard-response,401,844450,0.0-1.0-79.0-0.1-0.1,0,0,27789,,352.0,,,75.0,77.0,78.0,2000.0,1500.0,0.0,2.0,0.0,40-80,,1.0,nail polish,baby carriage,80.0,40.0,nail polish15,baby carriage1,60.0,40.0,MA_NP_WSD.jpg,babycarriage16.jpg,/static/Category_learning/Stimuli/Experimental_stims/nail polish/MA_NP_WSD.jpg,/static/Category_learning/Stimuli/Experimental_stims/baby carriage/babycarriage16.jpg,0.0,baby carriage,nail polish,40.0,80.0,baby carriage1,nail polish15,40.0,60.0,0.0,77.852,0.352,,,,,,
402,,confirmation,,html-keyboard-response,402,845608,0.0-1.0-79.0-0.1-1.1-0.1,0,0,27789,,,,,,77.0,,,,,,,,,,,,,,,,,,,,,,,,,,,,,,,,79.0,1.148,,,,,,
403,,isi,,html-keyboard-response,403,849117,0.0-1.0-79.0-0.1-2.1,0,0,27789,,,,,,,,,,,,,,,,,,,,,,,,,,,,,,,,,,,,,,82.5,3.5,,,,,,
404,,feedback,,html-keyboard-response,404,850125,0.0-1.0-79.0-0.1-3.1-0.1,0,0,27789,,,,,,77.0,,,,,,,,,,,,,,,,,,,,,,,,,,,,,,,,83.5,1.0,,,,,,
405,,iti,,html-keyboard-response,405,851134,0.0-1.0-79.0-0.1-5.1,0,0,27789,,,,,,,,,,,,,,,,,,,,,,,,,,,,,,,,,,,,,,84.5,1.0,,,,,,
406,,choice,,html-keyboard-response,406,851532,0.0-1.0-80.0-0.0-0.0,0,0,27789,,390.0,,,68.0,78.0,79.0,1000.0,1500.0,0.0,2.0,0.0,40-80,,1.0,poker card,bongo,80.0,40.0,poker card2,bongo9,100.0,20.0,22864716.thl.jpg,22946035.thl.jpg,/static/Category_learning/Stimuli/Experimental_stims/poker card/22864716.thl.jpg,/static/Category_learning/Stimuli/Experimental_stims/bongo/22946035.thl.jpg,1.0,poker card,bongo,80.0,40.0,poker card2,bongo9,100.0,20.0,0.0,84.89,0.39,,,,,,
407,,confirmation,,html-keyboard-response,407,852652,0.0-1.0-80.0-0.0-1.0-0.0,0,0,27789,,,,,,78.0,,,,,,,,,,,,,,,,,,,,,,,,,,,,,,,,86.0,1.11,,,,,,
408,,isi,,html-keyboard-response,408,853666,0.0-1.0-80.0-0.0-2.0,0,0,27789,,,,,,,,,,,,,,,,,,,,,,,,,,,,,,,,,,,,,,87.0,1.0,,,,,,
409,,feedback,,html-keyboard-response,409,854675,0.0-1.0-80.0-0.0-3.0-0.0,0,0,27789,,,,,,78.0,,,,,,,,,,,,,,,,,,,,,,,,,,,,,,,,88.0,1.0,,,,,,
410,,iti,,html-keyboard-response,410,856184,0.0-1.0-80.0-0.0-5.0,0,0,27789,,,,,,,,,,,,,,,,,,,,,,,,,,,,,,,,,,,,,,89.5,1.5,,,,,,
411,,choice,,html-keyboard-response,411,856970,0.0-1.0-81.0-0.0-0.0,0,0,27789,,776.0,,,75.0,79.0,80.0,1000.0,1000.0,0.0,2.0,0.0,80-80,,,seashell,patio lounge chair,80.0,80.0,seashell6,patio lounge chair3,80.0,60.0,PY2H1461.jpg,Lounge_Chair.jpg,/static/Category_learning/Stimuli/Experimental_stims/seashell/PY2H1461.jpg,/static/Category_learning/Stimuli/Experimental_stims/patio lounge chair/Lounge_Chair.jpg,0.0,patio lounge chair,seashell,80.0,80.0,patio lounge chair3,seashell6,60.0,80.0,0.0,90.276,0.776,,,,,,
412,,confirmation,,html-keyboard-response,412,857703,0.0-1.0-81.0-0.0-1.0-0.0,0,0,27789,,,,,,79.0,,,,,,,,,,,,,,,,,,,,,,,,,,,,,,,,91.0,0.724,,,,,,
413,,isi,,html-keyboard-response,413,858710,0.0-1.0-81.0-0.0-2.0,0,0,27789,,,,,,,,,,,,,,,,,,,,,,,,,,,,,,,,,,,,,,92.0,1.0,,,,,,
414,,feedback,,html-keyboard-response,414,859720,0.0-1.0-81.0-0.0-3.0-0.0,0,0,27789,,,,,,79.0,,,,,,,,,,,,,,,,,,,,,,,,,,,,,,,,93.0,1.0,,,,,,
415,,iti,,html-keyboard-response,415,860729,0.0-1.0-81.0-0.0-5.0,0,0,27789,,,,,,,,,,,,,,,,,,,,,,,,,,,,,,,,,,,,,,94.0,1.0,,,,,,
416,,choice,,html-keyboard-response,416,861666,0.0-1.0-82.0-0.0-0.0,0,0,27789,,928.0,,,75.0,80.0,81.0,1000.0,3500.0,0.0,2.0,0.0,20-80,,0.0,tape,small table,20.0,80.0,tape10,small table10,20.0,100.0,26377601.thl.jpg,ATABLE41.jpg,/static/Category_learning/Stimuli/Experimental_stims/tape/26377601.thl.jpg,/static/Category_learning/Stimuli/Experimental_stims/small table/ATABLE41.jpg,0.0,small table,tape,80.0,20.0,small table10,tape10,100.0,20.0,0.0,94.928,0.928,,,,,,
417,,confirmation,,html-keyboard-response,417,862249,0.0-1.0-82.0-0.0-1.0-0.0,0,0,27789,,,,,,80.0,,,,,,,,,,,,,,,,,,,,,,,,,,,,,,,,95.5,0.572,,,,,,
418,,isi,,html-keyboard-response,418,863257,0.0-1.0-82.0-0.0-2.0,0,0,27789,,,,,,,,,,,,,,,,,,,,,,,,,,,,,,,,,,,,,,96.5,1.0,,,,,,
419,,feedback,,html-keyboard-response,419,864266,0.0-1.0-82.0-0.0-3.0-0.0,0,0,27789,,,,,,80.0,,,,,,,,,,,,,,,,,,,,,,,,,,,,,,,,97.5,1.0,,,,,,
420,,iti,,html-keyboard-response,420,867775,0.0-1.0-82.0-0.0-5.0,0,0,27789,,,,,,,,,,,,,,,,,,,,,,,,,,,,,,,,,,,,,,101.0,3.5,,,,,,
421,,choice,,html-keyboard-response,421,868425,0.0-1.0-83.0-0.0-0.0,0,0,27789,,642.0,,,75.0,81.0,82.0,1000.0,3500.0,0.0,2.0,0.0,20-60,,0.0,stool,frame,20.0,60.0,stool14,frame7,40.0,40.0,hjscott-sbs-b-bar-stool.jpg,AFRAME152.jpg,/static/Category_learning/Stimuli/Experimental_stims/stool/hjscott-sbs-b-bar-stool.jpg,/static/Category_learning/Stimuli/Experimental_stims/frame/AFRAME152.jpg,0.0,frame,stool,60.0,20.0,frame7,stool14,40.0,40.0,0.0,101.642,0.642,,,,,,
422,,confirmation,,html-keyboard-response,422,869293,0.0-1.0-83.0-0.0-1.0-0.0,0,0,27789,,,,,,81.0,,,,,,,,,,,,,,,,,,,,,,,,,,,,,,,,102.5,0.858,,,,,,
423,,isi,,html-keyboard-response,423,870301,0.0-1.0-83.0-0.0-2.0,0,0,27789,,,,,,,,,,,,,,,,,,,,,,,,,,,,,,,,,,,,,,103.5,1.0,,,,,,
424,,feedback,,html-keyboard-response,424,871311,0.0-1.0-83.0-0.0-3.0-0.0,0,0,27789,,,,,,81.0,,,,,,,,,,,,,,,,,,,,,,,,,,,,,,,,104.5,1.0,,,,,,
425,,iti,,html-keyboard-response,425,874821,0.0-1.0-83.0-0.0-5.0,0,0,27789,,,,,,,,,,,,,,,,,,,,,,,,,,,,,,,,,,,,,,108.0,3.5,,,,,,
426,,choice,,html-keyboard-response,426,875725,0.0-1.0-84.0-0.0-0.0,0,0,27789,,896.0,,,75.0,82.0,83.0,3500.0,3000.0,0.0,2.0,0.0,20-60,,0.0,telescope,hammer,20.0,60.0,telescope10,hammer1,40.0,60.0,digimarc.ms02.jpg,fosnaugh.hammer.jpg,/static/Category_learning/Stimuli/Experimental_stims/telescope/digimarc.ms02.jpg,/static/Category_learning/Stimuli/Experimental_stims/hammer/fosnaugh.hammer.jpg,0.0,hammer,telescope,60.0,20.0,hammer1,telescope10,60.0,40.0,0.0,108.896,0.896,,,,,,
427,,confirmation,,html-keyboard-response,427,876338,0.0-1.0-84.0-0.0-1.0-0.0,0,0,27789,,,,,,82.0,,,,,,,,,,,,,,,,,,,,,,,,,,,,,,,,109.5,0.604,,,,,,
428,,isi,,html-keyboard-response,428,879847,0.0-1.0-84.0-0.0-2.0,0,0,27789,,,,,,,,,,,,,,,,,,,,,,,,,,,,,,,,,,,,,,113.0,3.5,,,,,,
429,,feedback,,html-keyboard-response,429,880857,0.0-1.0-84.0-0.0-3.0-0.0,0,0,27789,,,,,,82.0,,,,,,,,,,,,,,,,,,,,,,,,,,,,,,,,114.0,1.0,,,,,,
430,,iti,,html-keyboard-response,430,883866,0.0-1.0-84.0-0.0-5.0,0,0,27789,,,,,,,,,,,,,,,,,,,,,,,,,,,,,,,,,,,,,,117.0,3.0,,,,,,
431,,choice,,html-keyboard-response,431,884757,0.0-1.0-85.0-0.0-0.0,0,0,27789,,882.0,,,75.0,83.0,84.0,1000.0,1500.0,0.0,2.0,0.0,20-80,,1.0,small table,trumpet,80.0,20.0,small table14,trumpet4,100.0,0.0,Awoodtable13.jpg,JUPITER+JTR1000S.jpg,/static/Category_learning/Stimuli/Experimental_stims/small table/Awoodtable13.jpg,/static/Category_learning/Stimuli/Experimental_stims/trumpet/JUPITER+JTR1000S.jpg,0.0,trumpet,small table,20.0,80.0,trumpet4,small table14,0.0,100.0,0.0,117.882,0.882,,,,,,
432,,confirmation,,html-keyboard-response,432,885385,0.0-1.0-85.0-0.0-1.0-0.0,0,0,27789,,,,,,83.0,,,,,,,,,,,,,,,,,,,,,,,,,,,,,,,,118.5,0.618,,,,,,
433,,isi,,html-keyboard-response,433,886393,0.0-1.0-85.0-0.0-2.0,0,0,27789,,,,,,,,,,,,,,,,,,,,,,,,,,,,,,,,,,,,,,119.5,1.0,,,,,,
434,,feedback,,html-keyboard-response,434,887403,0.0-1.0-85.0-0.0-3.0-0.0,0,0,27789,,,,,,83.0,,,,,,,,,,,,,,,,,,,,,,,,,,,,,,,,120.5,1.0,,,,,,
435,,iti,,html-keyboard-response,435,888911,0.0-1.0-85.0-0.0-5.0,0,0,27789,,,,,,,,,,,,,,,,,,,,,,,,,,,,,,,,,,,,,,122.0,1.5,,,,,,
436,,choice,,html-keyboard-response,436,889682,0.0-1.0-86.0-0.0-0.0,0,0,27789,,762.0,,,68.0,84.0,85.0,1500.0,3000.0,0.0,2.0,0.0,40-40,,,baby carriage,flashlight,40.0,40.0,baby carriage15,flashlight14,40.0,40.0,AANBABYC2.jpg,freeplay-jonta-flashlight.jpg,/static/Category_learning/Stimuli/Experimental_stims/baby carriage/AANBABYC2.jpg,/static/Category_learning/Stimuli/Experimental_stims/flashlight/freeplay-jonta-flashlight.jpg,1.0,baby carriage,flashlight,40.0,40.0,baby carriage15,flashlight14,40.0,40.0,0.0,122.762,0.762,,,,,,
437,,confirmation,,html-keyboard-response,437,890429,0.0-1.0-86.0-0.0-1.0-0.0,0,0,27789,,,,,,84.0,,,,,,,,,,,,,,,,,,,,,,,,,,,,,,,,123.5,0.738,,,,,,
438,,isi,,html-keyboard-response,438,891939,0.0-1.0-86.0-0.0-2.0,0,0,27789,,,,,,,,,,,,,,,,,,,,,,,,,,,,,,,,,,,,,,125.0,1.5,,,,,,
439,,feedback,,html-keyboard-response,439,892950,0.0-1.0-86.0-0.0-3.0-0.0,0,0,27789,,,,,,84.0,,,,,,,,,,,,,,,,,,,,,,,,,,,,,,,,126.0,1.0,,,,,,
440,,iti,,html-keyboard-response,440,895959,0.0-1.0-86.0-0.0-5.0,0,0,27789,,,,,,,,,,,,,,,,,,,,,,,,,,,,,,,,,,,,,,129.0,3.0,,,,,,
441,,choice,,html-keyboard-response,441,896672,0.0-1.0-87.0-0.0-0.0,0,0,27789,,704.0,,,75.0,85.0,86.0,2000.0,1000.0,0.0,2.0,1.0,40-40,1.0,,baby carriage,baby carriage,40.0,40.0,baby carriage1,baby carriage15,40.0,40.0,babycarriage16.jpg,AANBABYC2.jpg,/static/Category_learning/Stimuli/Experimental_stims/baby carriage/babycarriage16.jpg,/static/Category_learning/Stimuli/Experimental_stims/baby carriage/AANBABYC2.jpg,0.0,baby carriage,baby carriage,40.0,40.0,baby carriage15,baby carriage1,40.0,40.0,0.0,129.704,0.704,,,,,,
442,,confirmation,,html-keyboard-response,442,897478,0.0-1.0-87.0-0.0-1.0-0.0,0,0,27789,,,,,,85.0,,,,,,,,,,,,,,,,,,,,,,,,,,,,,,,,130.5,0.796,,,,,,
443,,isi,,html-keyboard-response,443,899487,0.0-1.0-87.0-0.0-2.0,0,0,27789,,,,,,,,,,,,,,,,,,,,,,,,,,,,,,,,,,,,,,132.5,2.0,,,,,,
444,,feedback,,html-keyboard-response,444,900497,0.0-1.0-87.0-0.0-3.0-0.0,0,0,27789,,,,,,85.0,,,,,,,,,,,,,,,,,,,,,,,,,,,,,,,,133.5,1.0,,,,,,
445,,iti,,html-keyboard-response,445,901506,0.0-1.0-87.0-0.0-5.0,0,0,27789,,,,,,,,,,,,,,,,,,,,,,,,,,,,,,,,,,,,,,134.5,1.0,,,,,,
446,,choice,,html-keyboard-response,446,902529,0.0-1.0-88.0-0.0-0.0,0,0,27789,,1016.0,,,75.0,86.0,87.0,2000.0,1000.0,0.0,2.0,1.0,60-60,1.0,,hat,hat,60.0,60.0,hat10,hat14,80.0,60.0,Atornhat3.jpg,Ahat136.jpg,/static/Category_learning/Stimuli/Experimental_stims/hat/Atornhat3.jpg,/static/Category_learning/Stimuli/Experimental_stims/hat/Ahat136.jpg,0.0,hat,hat,60.0,60.0,hat14,hat10,60.0,80.0,0.0,135.516,1.016,,,,,,
447,,confirmation,,html-keyboard-response,447,903024,0.0-1.0-88.0-0.0-1.0-0.0,0,0,27789,,,,,,86.0,,,,,,,,,,,,,,,,,,,,,,,,,,,,,,,,136.0,0.484,,,,,,
448,,isi,,html-keyboard-response,448,905033,0.0-1.0-88.0-0.0-2.0,0,0,27789,,,,,,,,,,,,,,,,,,,,,,,,,,,,,,,,,,,,,,138.0,2.0,,,,,,
449,,feedback,,html-keyboard-response,449,906043,0.0-1.0-88.0-0.0-3.0-0.0,0,0,27789,,,,,,86.0,,,,,,,,,,,,,,,,,,,,,,,,,,,,,,,,139.0,1.0,,,,,,
450,,iti,,html-keyboard-response,450,907052,0.0-1.0-88.0-0.0-5.0,0,0,27789,,,,,,,,,,,,,,,,,,,,,,,,,,,,,,,,,,,,,,140.0,1.0,,,,,,
451,,choice,,html-keyboard-response,451,907902,0.0-1.0-89.0-0.0-0.0,0,0,27789,,841.0,,,75.0,87.0,88.0,3000.0,1000.0,0.0,2.0,0.0,40-60,,1.0,motorcycle,baby carriage,60.0,40.0,motorcycle8,baby carriage6,80.0,20.0,Motorcycle903425j2.jpg,Baby_Stroller-1.jpg,/static/Category_learning/Stimuli/Experimental_stims/motorcycle/Motorcycle903425j2.jpg,/static/Category_learning/Stimuli/Experimental_stims/baby carriage/Baby_Stroller-1.jpg,0.0,baby carriage,motorcycle,40.0,60.0,baby carriage6,motorcycle8,20.0,80.0,0.0,140.841,0.841,,,,,,
452,,confirmation,,html-keyboard-response,452,908571,0.0-1.0-89.0-0.0-1.0-0.0,0,0,27789,,,,,,87.0,,,,,,,,,,,,,,,,,,,,,,,,,,,,,,,,141.5,0.659,,,,,,
453,,isi,,html-keyboard-response,453,911580,0.0-1.0-89.0-0.0-2.0,0,0,27789,,,,,,,,,,,,,,,,,,,,,,,,,,,,,,,,,,,,,,144.5,3.0,,,,,,
454,,feedback,,html-keyboard-response,454,912590,0.0-1.0-89.0-0.0-3.0-0.0,0,0,27789,,,,,,87.0,,,,,,,,,,,,,,,,,,,,,,,,,,,,,,,,145.5,1.0,,,,,,
455,,iti,,html-keyboard-response,455,913599,0.0-1.0-89.0-0.0-5.0,0,0,27789,,,,,,,,,,,,,,,,,,,,,,,,,,,,,,,,,,,,,,146.5,1.0,,,,,,
456,,choice,,html-keyboard-response,456,914388,0.0-1.0-90.0-0.0-0.0,0,0,27789,,781.0,,,68.0,88.0,89.0,1000.0,1500.0,0.0,2.0,0.0,20-80,,1.0,pen,tent,80.0,20.0,pen9,tent4,60.0,20.0,Aredpen3.jpg,Atent12.jpg,/static/Category_learning/Stimuli/Experimental_stims/pen/Aredpen3.jpg,/static/Category_learning/Stimuli/Experimental_stims/tent/Atent12.jpg,1.0,pen,tent,80.0,20.0,pen9,tent4,60.0,20.0,0.0,147.281,0.781,,,,,,
457,,confirmation,,html-keyboard-response,457,915116,0.0-1.0-90.0-0.0-1.0-0.0,0,0,27789,,,,,,88.0,,,,,,,,,,,,,,,,,,,,,,,,,,,,,,,,148.0,0.719,,,,,,
458,,isi,,html-keyboard-response,458,916125,0.0-1.0-90.0-0.0-2.0,0,0,27789,,,,,,,,,,,,,,,,,,,,,,,,,,,,,,,,,,,,,,149.0,1.0,,,,,,
459,,feedback,,html-keyboard-response,459,917135,0.0-1.0-90.0-0.0-3.0-0.0,0,0,27789,,,,,,88.0,,,,,,,,,,,,,,,,,,,,,,,,,,,,,,,,150.0,1.0,,,,,,
460,,iti,,html-keyboard-response,460,918644,0.0-1.0-90.0-0.0-5.0,0,0,27789,,,,,,,,,,,,,,,,,,,,,,,,,,,,,,,,,,,,,,151.5,1.5,,,,,,
461,,choice,,html-keyboard-response,461,919394,0.0-1.0-91.0-0.0-0.0,0,0,27789,,742.0,,,75.0,89.0,90.0,2000.0,1000.0,0.0,2.0,0.0,20-40,,1.0,bongo,yarn,40.0,20.0,bongo7,yarn6,20.0,20.0,26461075.thl.jpg,edwardian moment hpy sml.jpg,/static/Category_learning/Stimuli/Experimental_stims/bongo/26461075.thl.jpg,/static/Category_learning/Stimuli/Experimental_stims/yarn/edwardian moment hpy sml.jpg,0.0,yarn,bongo,20.0,40.0,yarn6,bongo7,20.0,20.0,0.0,152.242,0.742,,,,,,
462,,confirmation,,html-keyboard-response,462,920161,0.0-1.0-91.0-0.0-1.0-0.0,0,0,27789,,,,,,89.0,,,,,,,,,,,,,,,,,,,,,,,,,,,,,,,,153.0,0.758,,,,,,
463,,isi,,html-keyboard-response,463,922170,0.0-1.0-91.0-0.0-2.0,0,0,27789,,,,,,,,,,,,,,,,,,,,,,,,,,,,,,,,,,,,,,155.0,2.0,,,,,,
464,,feedback,,html-keyboard-response,464,923180,0.0-1.0-91.0-0.0-3.0-0.0,0,0,27789,,,,,,89.0,,,,,,,,,,,,,,,,,,,,,,,,,,,,,,,,156.0,1.0,,,,,,
465,,iti,,html-keyboard-response,465,924189,0.0-1.0-91.0-0.0-5.0,0,0,27789,,,,,,,,,,,,,,,,,,,,,,,,,,,,,,,,,,,,,,157.0,1.0,,,,,,
466,,choice,,html-keyboard-response,466,925387,0.0-1.0-92.0-0.0-0.0,0,0,27789,,1190.0,,,68.0,90.0,91.0,3500.0,1000.0,0.0,2.0,0.0,40-40,,,desk,bongo,40.0,40.0,desk2,bongo15,60.0,40.0,AA Luffield Radial crescent Desk 1600mm x 1200mm.jpg,26390728.thl.jpg,/static/Category_learning/Stimuli/Experimental_stims/desk/AA Luffield Radial crescent Desk 1600mm x 1200mm.jpg,/static/Category_learning/Stimuli/Experimental_stims/bongo/26390728.thl.jpg,1.0,desk,bongo,40.0,40.0,desk2,bongo15,60.0,40.0,0.0,158.19,1.19,,,,,,
467,,confirmation,,html-keyboard-response,467,925707,0.0-1.0-92.0-0.0-1.0-0.0,0,0,27789,,,,,,90.0,,,,,,,,,,,,,,,,,,,,,,,,,,,,,,,,158.5,0.31,,,,,,
468,,isi,,html-keyboard-response,468,929215,0.0-1.0-92.0-0.0-2.0,0,0,27789,,,,,,,,,,,,,,,,,,,,,,,,,,,,,,,,,,,,,,162.0,3.5,,,,,,
469,,feedback,,html-keyboard-response,469,930223,0.0-1.0-92.0-0.0-3.0-0.0,0,0,27789,,,,,,90.0,,,,,,,,,,,,,,,,,,,,,,,,,,,,,,,,163.0,1.0,,,,,,
470,,iti,,html-keyboard-response,470,931231,0.0-1.0-92.0-0.0-5.0,0,0,27789,,,,,,,,,,,,,,,,,,,,,,,,,,,,,,,,,,,,,,164.0,1.0,,,,,,
471,,choice,,html-keyboard-response,471,932187,0.0-1.0-93.0-0.0-0.0,0,0,27789,,947.0,,,75.0,91.0,92.0,1500.0,1000.0,0.0,2.0,1.0,80-80,1.0,,small table,small table,80.0,80.0,small table8,small table10,60.0,100.0,ATABLE8.jpg,ATABLE41.jpg,/static/Category_learning/Stimuli/Experimental_stims/small table/ATABLE8.jpg,/static/Category_learning/Stimuli/Experimental_stims/small table/ATABLE41.jpg,0.0,small table,small table,80.0,80.0,small table10,small table8,100.0,60.0,0.0,164.947,0.947,,,,,,
472,,confirmation,,html-keyboard-response,472,932750,0.0-1.0-93.0-0.0-1.0-0.0,0,0,27789,,,,,,91.0,,,,,,,,,,,,,,,,,,,,,,,,,,,,,,,,165.5,0.553,,,,,,
473,,isi,,html-keyboard-response,473,934259,0.0-1.0-93.0-0.0-2.0,0,0,27789,,,,,,,,,,,,,,,,,,,,,,,,,,,,,,,,,,,,,,167.0,1.5,,,,,,
474,,feedback,,html-keyboard-response,474,935269,0.0-1.0-93.0-0.0-3.0-0.0,0,0,27789,,,,,,91.0,,,,,,,,,,,,,,,,,,,,,,,,,,,,,,,,168.0,1.0,,,,,,
475,,iti,,html-keyboard-response,475,936279,0.0-1.0-93.0-0.0-5.0,0,0,27789,,,,,,,,,,,,,,,,,,,,,,,,,,,,,,,,,,,,,,169.0,1.0,,,,,,
476,,choice,,html-keyboard-response,476,937117,0.0-1.0-94.0-0.0-0.0,0,0,27789,,829.0,,,68.0,92.0,93.0,3000.0,2000.0,0.0,2.0,1.0,80-80,1.0,,pen,pen,80.0,80.0,pen10,pen9,100.0,60.0,VP-Raden-FP-L copy.jpg,Aredpen3.jpg,/static/Category_learning/Stimuli/Experimental_stims/pen/VP-Raden-FP-L copy.jpg,/static/Category_learning/Stimuli/Experimental_stims/pen/Aredpen3.jpg,1.0,pen,pen,80.0,80.0,pen10,pen9,100.0,60.0,0.0,169.829,0.829,,,,,,
477,,confirmation,,html-keyboard-response,477,937805,0.0-1.0-94.0-0.0-1.0-0.0,0,0,27789,,,,,,92.0,,,,,,,,,,,,,,,,,,,,,,,,,,,,,,,,170.5,0.671,,,,,,
478,,isi,,html-keyboard-response,478,940813,0.0-1.0-94.0-0.0-2.0,0,0,27789,,,,,,,,,,,,,,,,,,,,,,,,,,,,,,,,,,,,,,173.5,3.0,,,,,,
479,,feedback,,html-keyboard-response,479,941823,0.0-1.0-94.0-0.0-3.0-0.0,0,0,27789,,,,,,92.0,,,,,,,,,,,,,,,,,,,,,,,,,,,,,,,,174.5,1.0,,,,,,
480,,iti,,html-keyboard-response,480,943831,0.0-1.0-94.0-0.0-5.0,0,0,27789,,,,,,,,,,,,,,,,,,,,,,,,,,,,,,,,,,,,,,176.5,2.0,,,,,,
481,,choice,,html-keyboard-response,481,944689,0.0-1.0-95.0-0.0-0.0,0,0,27789,,849.0,,,68.0,93.0,94.0,1500.0,1500.0,0.0,2.0,0.0,40-80,,1.0,poker card,bowl,80.0,40.0,poker card9,bowl15,80.0,60.0,9817230.thl.jpg,Awhitebowl2.jpg,/static/Category_learning/Stimuli/Experimental_stims/poker card/9817230.thl.jpg,/static/Category_learning/Stimuli/Experimental_stims/bowl/Awhitebowl2.jpg,1.0,poker card,bowl,80.0,40.0,poker card9,bowl15,80.0,60.0,0.0,177.349,0.849,,,,,,
482,,confirmation,,html-keyboard-response,482,945350,0.0-1.0-95.0-0.0-1.0-0.0,0,0,27789,,,,,,93.0,,,,,,,,,,,,,,,,,,,,,,,,,,,,,,,,178.0,0.651,,,,,,
483,,isi,,html-keyboard-response,483,946858,0.0-1.0-95.0-0.0-2.0,0,0,27789,,,,,,,,,,,,,,,,,,,,,,,,,,,,,,,,,,,,,,179.5,1.5,,,,,,
484,,feedback,,html-keyboard-response,484,947868,0.0-1.0-95.0-0.0-3.0-0.0,0,0,27789,,,,,,93.0,,,,,,,,,,,,,,,,,,,,,,,,,,,,,,,,180.5,1.0,,,,,,
485,,iti,,html-keyboard-response,485,949377,0.0-1.0-95.0-0.0-5.0,0,0,27789,,,,,,,,,,,,,,,,,,,,,,,,,,,,,,,,,,,,,,182.0,1.5,,,,,,
486,,choice,,html-keyboard-response,486,950377,0.0-1.0-96.0-0.0-0.0,0,0,27789,,991.0,,,75.0,94.0,95.0,1000.0,1500.0,0.0,2.0,0.0,20-20,,,tape,trumpet,20.0,20.0,tape5,trumpet7,20.0,0.0,910372_sk_lg.jpg,JTP-606MRS.jpg,/static/Category_learning/Stimuli/Experimental_stims/tape/910372_sk_lg.jpg,/static/Category_learning/Stimuli/Experimental_stims/trumpet/JTP-606MRS.jpg,0.0,trumpet,tape,20.0,20.0,trumpet7,tape5,0.0,20.0,0.0,182.991,0.991,,,,,,
487,,confirmation,,html-keyboard-response,487,950896,0.0-1.0-96.0-0.0-1.0-0.0,0,0,27789,,,,,,94.0,,,,,,,,,,,,,,,,,,,,,,,,,,,,,,,,183.5,0.509,,,,,,
488,,isi,,html-keyboard-response,488,951905,0.0-1.0-96.0-0.0-2.0,0,0,27789,,,,,,,,,,,,,,,,,,,,,,,,,,,,,,,,,,,,,,184.5,1.0,,,,,,
