,success,ttype,start_time,trial_type,trial_index,time_elapsed,internal_node_id,warning,missed_checkup,PID,view_history,rt,responses,repeat_instructions,key_press,index,trial_num,isi,iti,is_practice,block,old_trial,pair_type,within_category,high_cat_on_left,left_category,right_category,left_category_value,right_category_value,left_exemplar,right_exemplar,left_exemplar_value,right_exemplar_value,left_img,right_img,left_img_path,right_img_path,left_chosen,chosen_category,unchosen_category,chosen_category_value,unchosen_category_value,chosen_exemplar,unchosen_exemplar,chosen_exemplar_value,unchosen_exemplar_value,no_response,onset,duration,end_practice
0,True,full_screen,d05202022hr1710,fullscreen,0,7295,0.0-0.0,0,0,3,,,,,,,,,,,,,,,,,,,,,,,,,,,,,,,,,,,,,,,,
1,,category_learning_instructions,,instructions,1,21724,0.0-1.0-0.0-0.0,0,0,3,"[{""page_index"":0,""viewing_time"":1643},{""page_index"":1,""viewing_time"":3113},{""page_index"":2,""viewing_time"":1686},{""page_index"":3,""viewing_time"":1851},{""page_index"":4,""viewing_time"":4383},{""page_index"":5,""viewing_time"":1123},{""page_index"":6,""viewing_time"":627}]",14426.0,,,,,,,,,,,,,,,,,,,,,,,,,,,,,,,,,,,,,,
2,,category_learning_comprehension_check,,survey-multi-choice,2,27087,0.0-1.0-0.0-1.0,0,0,3,,5358.0,"{""Q0"":""True"",""Q1"":""True"",""Q2"":""Stay the same"",""Q3"":""pointer finger for left and middle finger for right""}",0.0,,,,,,,,,,,,,,,,,,,,,,,,,,,,,,,,,,,,
3,,,,html-keyboard-response,3,29843,0.0-1.0-1.0,0,0,3,,2752.0,,,50.0,,,,,,,,,,,,,,,,,,,,,,,,,,,,,,,,,,,
4,,choice,,html-keyboard-response,4,31226,0.0-1.0-2.0-0.0-0.0,0,0,3,,1379.0,,,50.0,0.0,0.0,1500.0,1000.0,1.0,0.0,0.0,20-80,,0.0,bagel,dumbbell,20.0,80.0,bagel1,dumbbell1,0.0,80.0,bagels_pumpernickel_large.jpg,31B64EN68AL._AA280_.jpg,/static/Category_learning/Stimuli/Practice_stims/bagel/bagels_pumpernickel_large.jpg,/static/Category_learning/Stimuli/Practice_stims/dumbbell/31B64EN68AL._AA280_.jpg,1.0,bagel,dumbbell,20.0,80.0,bagel1,dumbbell1,0.0,80.0,0.0,1.379,1.379,
5,,confirmation,,html-keyboard-response,5,31352,0.0-1.0-2.0-0.0-1.0-0.0,0,0,3,,,,,,0.0,,,,,,,,,,,,,,,,,,,,,,,,,,,,,,,,1.5,0.121,
6,,isi,,html-keyboard-response,6,31456,0.0-1.0-2.0-0.0-2.0,0,0,3,,,,,,,,,,,,,,,,,,,,,,,,,,,,,,,,,,,,,,3.0,1.5,
7,,feedback,,html-keyboard-response,7,32461,0.0-1.0-2.0-0.0-3.0-0.0,0,0,3,,,,,,0.0,,,,,,,,,,,,,,,,,,,,,,,,,,,,,,,,4.0,1.0,
8,,iti,,html-keyboard-response,8,32567,0.0-1.0-2.0-0.0-5.0,0,0,3,,,,,,,,,,,,,,,,,,,,,,,,,,,,,,,,,,,,,,5.0,1.0,
9,,choice,,html-keyboard-response,9,32782,0.0-1.0-3.0-0.0-0.0,0,0,3,,210.0,,,50.0,1.0,1.0,3000.0,1500.0,1.0,0.0,0.0,20-40,,1.0,calculator,bagel,40.0,20.0,calculator2,bagel2,20.0,20.0,22829064.thl.jpg,bagels_cinnraisin_large.jpg,/static/Category_learning/Stimuli/Practice_stims/calculator/22829064.thl.jpg,/static/Category_learning/Stimuli/Practice_stims/bagel/bagels_cinnraisin_large.jpg,1.0,calculator,bagel,40.0,20.0,calculator2,bagel2,20.0,20.0,0.0,5.21,0.21,
10,,confirmation,,html-keyboard-response,10,34079,0.0-1.0-3.0-0.0-1.0-0.0,0,0,3,,,,,,1.0,,,,,,,,,,,,,,,,,,,,,,,,,,,,,,,,6.5,1.29,
11,,isi,,html-keyboard-response,11,34183,0.0-1.0-3.0-0.0-2.0,0,0,3,,,,,,,,,,,,,,,,,,,,,,,,,,,,,,,,,,,,,,9.5,3.0,
12,,feedback,,html-keyboard-response,12,35188,0.0-1.0-3.0-0.0-3.0-0.0,0,0,3,,,,,,1.0,,,,,,,,,,,,,,,,,,,,,,,,,,,,,,,,10.5,1.0,
13,,iti,,html-keyboard-response,13,35293,0.0-1.0-3.0-0.0-5.0,0,0,3,,,,,,,,,,,,,,,,,,,,,,,,,,,,,,,,,,,,,,12.0,1.5,
14,,choice,,html-keyboard-response,14,35446,0.0-1.0-4.0-0.0-0.0,0,0,3,,149.0,,,50.0,2.0,2.0,2000.0,3000.0,1.0,0.0,0.0,60-80,,0.0,clock,dumbbell,60.0,80.0,clock2,dumbbell2,60.0,100.0,26373355.thl.jpg,31K8MR6TMBL._SS500_.jpg,/static/Category_learning/Stimuli/Practice_stims/clock/26373355.thl.jpg,/static/Category_learning/Stimuli/Practice_stims/dumbbell/31K8MR6TMBL._SS500_.jpg,1.0,clock,dumbbell,60.0,80.0,clock2,dumbbell2,60.0,100.0,0.0,12.149,0.149,
15,,confirmation,,html-keyboard-response,15,36804,0.0-1.0-4.0-0.0-1.0-0.0,0,0,3,,,,,,2.0,,,,,,,,,,,,,,,,,,,,,,,,,,,,,,,,13.5,1.351,
16,,isi,,html-keyboard-response,16,36910,0.0-1.0-4.0-0.0-2.0,0,0,3,,,,,,,,,,,,,,,,,,,,,,,,,,,,,,,,,,,,,,15.5,2.0,
17,,feedback,,html-keyboard-response,17,37919,0.0-1.0-4.0-0.0-3.0-0.0,0,0,3,,,,,,2.0,,,,,,,,,,,,,,,,,,,,,,,,,,,,,,,,16.5,1.0,
18,,iti,,html-keyboard-response,18,38024,0.0-1.0-4.0-0.0-5.0,0,0,3,,,,,,,,,,,,,,,,,,,,,,,,,,,,,,,,,,,,,,19.5,3.0,
19,,choice,,html-keyboard-response,19,38185,0.0-1.0-5.0-0.0-0.0,0,0,3,,158.0,,,50.0,3.0,3.0,1000.0,2000.0,1.0,0.0,0.0,40-80,,0.0,calculator,clock,40.0,60.0,calculator1,clock1,40.0,40.0,22829184.thl.jpg,Aalarmclock2.jpg,/static/Category_learning/Stimuli/Practice_stims/calculator/22829184.thl.jpg,/static/Category_learning/Stimuli/Practice_stims/clock/Aalarmclock2.jpg,1.0,calculator,clock,40.0,60.0,calculator1,clock1,40.0,40.0,0.0,19.658,0.158,
20,,confirmation,,html-keyboard-response,20,39532,0.0-1.0-5.0-0.0-1.0-0.0,0,0,3,,,,,,3.0,,,,,,,,,,,,,,,,,,,,,,,,,,,,,,,,21.0,1.342,
21,,isi,,html-keyboard-response,21,39640,0.0-1.0-5.0-0.0-2.0,0,0,3,,,,,,,,,,,,,,,,,,,,,,,,,,,,,,,,,,,,,,22.0,1.0,
22,,feedback,,html-keyboard-response,22,40645,0.0-1.0-5.0-0.0-3.0-0.0,0,0,3,,,,,,3.0,,,,,,,,,,,,,,,,,,,,,,,,,,,,,,,,23.0,1.0,
23,,iti,,html-keyboard-response,23,40753,0.0-1.0-5.0-0.0-5.0,0,0,3,,,,,,,,,,,,,,,,,,,,,,,,,,,,,,,,,,,,,,25.0,2.0,
24,,choice,,html-keyboard-response,24,40952,0.0-1.0-6.0-0.0-0.0,0,0,3,,196.0,,,50.0,4.0,4.0,2500.0,2500.0,1.0,0.0,0.0,20-60,,1.0,dumbbell,bagel,80.0,20.0,dumbbell3,bagel3,100.0,40.0,41K7QVRX50L._SS500_.jpg,photo-169.jpg,/static/Category_learning/Stimuli/Practice_stims/dumbbell/41K7QVRX50L._SS500_.jpg,/static/Category_learning/Stimuli/Practice_stims/bagel/photo-169.jpg,1.0,dumbbell,bagel,80.0,20.0,dumbbell3,bagel3,100.0,40.0,0.0,25.196,0.196,1.0
25,,confirmation,,html-keyboard-response,25,42262,0.0-1.0-6.0-0.0-1.0-0.0,0,0,3,,,,,,4.0,,,,,,,,,,,,,,,,,,,,,,,,,,,,,,,,26.5,1.304,
26,,isi,,html-keyboard-response,26,42368,0.0-1.0-6.0-0.0-2.0,0,0,3,,,,,,,,,,,,,,,,,,,,,,,,,,,,,,,,,,,,,,29.0,2.5,
27,,feedback,,html-keyboard-response,27,43375,0.0-1.0-6.0-0.0-3.0-0.0,0,0,3,,,,,,4.0,,,,,,,,,,,,,,,,,,,,,,,,,,,,,,,,30.0,1.0,
28,,iti,,html-keyboard-response,28,43480,0.0-1.0-6.0-0.0-5.0,0,0,3,,,,,,,,,,,,,,,,,,,,,,,,,,,,,,,,,,,,,,32.5,2.5,
29,,practice_over,,html-keyboard-response,29,43685,0.0-1.0-6.0-0.0-6.0-0.0,0,0,3,,202.0,,,50.0,4.0,,,,,,,,,,,,,,,,,,,,,,,,,,,,,,,,,,
30,,start_run,,html-keyboard-response,30,44966,0.0-1.0-6.0-0.0-6.0-1.0,0,0,3,,1279.0,,,84.0,,,,,,,,,,,,,,,,,,,,,,,,,,,,,,,,,,,
31,,choice,,html-keyboard-response,31,45527,0.0-1.0-7.0-0.0-0.0,0,0,3,,556.0,,,50.0,5.0,5.0,2000.0,2000.0,0.0,1.0,0.0,40-80,,1.0,desk,patio lounge chair,80.0,40.0,desk1,patio lounge chair15,100.0,40.0,ADESK11.jpg,phpThumb.jpg,/static/Category_learning/Stimuli/Experimental_stims/desk/ADESK11.jpg,/static/Category_learning/Stimuli/Experimental_stims/patio lounge chair/phpThumb.jpg,1.0,desk,patio lounge chair,80.0,40.0,desk1,patio lounge chair15,100.0,40.0,0.0,0.556,0.556,
32,,confirmation,,html-keyboard-response,32,46477,0.0-1.0-7.0-0.0-1.0-0.0,0,0,3,,,,,,5.0,,,,,,,,,,,,,,,,,,,,,,,,,,,,,,,,1.5,0.944,
33,,isi,,html-keyboard-response,33,46584,0.0-1.0-7.0-0.0-2.0,0,0,3,,,,,,,,,,,,,,,,,,,,,,,,,,,,,,,,,,,,,,3.5,2.0,
34,,feedback,,html-keyboard-response,34,47589,0.0-1.0-7.0-0.0-3.0-0.0,0,0,3,,,,,,5.0,,,,,,,,,,,,,,,,,,,,,,,,,,,,,,,,4.5,1.0,
35,,iti,,html-keyboard-response,35,47694,0.0-1.0-7.0-0.0-5.0,0,0,3,,,,,,,,,,,,,,,,,,,,,,,,,,,,,,,,,,,,,,6.5,2.0,
36,,choice,,html-keyboard-response,36,49204,0.0-1.0-8.0-0.0-0.0,0,0,3,,,,,,6.0,6.0,3000.0,1500.0,0.0,1.0,0.0,40-60,,0.0,poker card,tent,40.0,60.0,poker card12,tent9,20.0,60.0,22865676.thl.jpg,Red Canyon Tent.jpg,/static/Category_learning/Stimuli/Experimental_stims/poker card/22865676.thl.jpg,/static/Category_learning/Stimuli/Experimental_stims/tent/Red Canyon Tent.jpg,,,,,,,,,,1.0,8.0,1.5,
37,,isi,,html-keyboard-response,37,49308,0.0-1.0-8.0-0.0-2.0,0,0,3,,,,,,,,,,,,,,,,,,,,,,,,,,,,,,,,,,,,,,11.0,3.0,
38,,no_response,,html-keyboard-response,38,50315,0.0-1.0-8.0-0.0-4.0-0.0,0,0,3,,,,,,,,,,,,,,,,,,,,,,,,,,,,,,,,,,,,,,12.0,1.0,
39,,iti,,html-keyboard-response,39,50441,0.0-1.0-8.0-0.0-5.0,0,0,3,,,,,,,,,,,,,,,,,,,,,,,,,,,,,,,,,,,,,,13.5,1.5,
40,,choice,,html-keyboard-response,40,51951,0.0-1.0-8.0-0.1-0.1,0,0,3,,,,,,6.0,6.0,3000.0,1500.0,0.0,1.0,0.0,40-60,,0.0,poker card,tent,40.0,60.0,poker card12,tent9,20.0,60.0,22865676.thl.jpg,Red Canyon Tent.jpg,/static/Category_learning/Stimuli/Experimental_stims/poker card/22865676.thl.jpg,/static/Category_learning/Stimuli/Experimental_stims/tent/Red Canyon Tent.jpg,,,,,,,,,,1.0,15.0,1.5,
41,,isi,,html-keyboard-response,41,52054,0.0-1.0-8.0-0.1-2.1,0,0,3,,,,,,,,,,,,,,,,,,,,,,,,,,,,,,,,,,,,,,16.5,1.5,
42,,no_response,,html-keyboard-response,42,53059,0.0-1.0-8.0-0.1-4.1-0.1,0,0,3,,,,,,,,,,,,,,,,,,,,,,,,,,,,,,,,,,,,,,17.5,1.0,
43,,iti,,html-keyboard-response,43,53199,0.0-1.0-8.0-0.1-5.1,0,0,3,,,,,,,,,,,,,,,,,,,,,,,,,,,,,,,,,,,,,,21.0,3.5,
44,,choice,,html-keyboard-response,44,53454,0.0-1.0-8.0-0.2-0.2,0,0,3,,251.0,,,50.0,6.0,6.0,3000.0,1500.0,0.0,1.0,0.0,40-60,,0.0,poker card,tent,40.0,60.0,poker card12,tent9,20.0,60.0,22865676.thl.jpg,Red Canyon Tent.jpg,/static/Category_learning/Stimuli/Experimental_stims/poker card/22865676.thl.jpg,/static/Category_learning/Stimuli/Experimental_stims/tent/Red Canyon Tent.jpg,1.0,poker card,tent,40.0,60.0,poker card12,tent9,20.0,60.0,0.0,21.251,0.251,
45,,confirmation,,html-keyboard-response,45,54711,0.0-1.0-8.0-0.2-1.2-0.2,0,0,3,,,,,,6.0,,,,,,,,,,,,,,,,,,,,,,,,,,,,,,,,22.5,1.249,
46,,isi,,html-keyboard-response,46,54815,0.0-1.0-8.0-0.2-2.2,0,0,3,,,,,,,,,,,,,,,,,,,,,,,,,,,,,,,,,,,,,,24.0,1.5,
47,,feedback,,html-keyboard-response,47,55820,0.0-1.0-8.0-0.2-3.2-0.2,0,0,3,,,,,,6.0,,,,,,,,,,,,,,,,,,,,,,,,,,,,,,,,25.0,1.0,
48,,iti,,html-keyboard-response,48,55928,0.0-1.0-8.0-0.2-5.2,0,0,3,,,,,,,,,,,,,,,,,,,,,,,,,,,,,,,,,,,,,,28.5,3.5,
49,,choice,,html-keyboard-response,49,56023,0.0-1.0-9.0-0.0-0.0,0,0,3,,91.0,,,50.0,7.0,7.0,2000.0,1000.0,0.0,1.0,0.0,40-60,,0.0,pen,tent,40.0,60.0,pen6,tent6,20.0,80.0,executive_pen2.jpg,lighthouse_tent_edited_1-1.jpg,/static/Category_learning/Stimuli/Experimental_stims/pen/executive_pen2.jpg,/static/Category_learning/Stimuli/Experimental_stims/tent/lighthouse_tent_edited_1-1.jpg,1.0,pen,tent,40.0,60.0,pen6,tent6,20.0,80.0,0.0,28.591,0.091,
50,,confirmation,,html-keyboard-response,50,57437,0.0-1.0-9.0-0.0-1.0-0.0,0,0,3,,,,,,7.0,,,,,,,,,,,,,,,,,,,,,,,,,,,,,,,,30.0,1.409,
51,,isi,,html-keyboard-response,51,57542,0.0-1.0-9.0-0.0-2.0,0,0,3,,,,,,,,,,,,,,,,,,,,,,,,,,,,,,,,,,,,,,32.0,2.0,
52,,feedback,,html-keyboard-response,52,58550,0.0-1.0-9.0-0.0-3.0-0.0,0,0,3,,,,,,7.0,,,,,,,,,,,,,,,,,,,,,,,,,,,,,,,,33.0,1.0,
53,,iti,,html-keyboard-response,53,58659,0.0-1.0-9.0-0.0-5.0,0,0,3,,,,,,,,,,,,,,,,,,,,,,,,,,,,,,,,,,,,,,34.0,1.0,
54,,choice,,html-keyboard-response,54,58840,0.0-1.0-10.0-0.0-0.0,0,0,3,,176.0,,,50.0,8.0,8.0,1000.0,1000.0,0.0,1.0,0.0,20-60,,1.0,tent,lipstick,60.0,20.0,tent14,lipstick5,60.0,0.0,inflatable-tent.jpg,P35719_hero.jpg,/static/Category_learning/Stimuli/Experimental_stims/tent/inflatable-tent.jpg,/static/Category_learning/Stimuli/Experimental_stims/lipstick/P35719_hero.jpg,1.0,tent,lipstick,60.0,20.0,tent14,lipstick5,60.0,0.0,0.0,34.176,0.176,
55,,confirmation,,html-keyboard-response,55,60173,0.0-1.0-10.0-0.0-1.0-0.0,0,0,3,,,,,,8.0,,,,,,,,,,,,,,,,,,,,,,,,,,,,,,,,35.5,1.324,
56,,isi,,html-keyboard-response,56,60277,0.0-1.0-10.0-0.0-2.0,0,0,3,,,,,,,,,,,,,,,,,,,,,,,,,,,,,,,,,,,,,,36.5,1.0,
57,,feedback,,html-keyboard-response,57,61287,0.0-1.0-10.0-0.0-3.0-0.0,0,0,3,,,,,,8.0,,,,,,,,,,,,,,,,,,,,,,,,,,,,,,,,37.5,1.0,
58,,iti,,html-keyboard-response,58,61393,0.0-1.0-10.0-0.0-5.0,0,0,3,,,,,,,,,,,,,,,,,,,,,,,,,,,,,,,,,,,,,,38.5,1.0,
59,,choice,,html-keyboard-response,59,61532,0.0-1.0-11.0-0.0-0.0,0,0,3,,134.0,,,50.0,9.0,9.0,1000.0,1000.0,0.0,1.0,0.0,20-60,,1.0,watch,frame,60.0,20.0,watch8,frame6,60.0,40.0,2239.jpg,AFRAME123.jpg,/static/Category_learning/Stimuli/Experimental_stims/watch/2239.jpg,/static/Category_learning/Stimuli/Experimental_stims/frame/AFRAME123.jpg,1.0,watch,frame,60.0,20.0,watch8,frame6,60.0,40.0,0.0,38.634,0.134,
60,,confirmation,,html-keyboard-response,60,62905,0.0-1.0-11.0-0.0-1.0-0.0,0,0,3,,,,,,9.0,,,,,,,,,,,,,,,,,,,,,,,,,,,,,,,,40.0,1.366,
61,,isi,,html-keyboard-response,61,63010,0.0-1.0-11.0-0.0-2.0,0,0,3,,,,,,,,,,,,,,,,,,,,,,,,,,,,,,,,,,,,,,41.0,1.0,
62,,feedback,,html-keyboard-response,62,64013,0.0-1.0-11.0-0.0-3.0-0.0,0,0,3,,,,,,9.0,,,,,,,,,,,,,,,,,,,,,,,,,,,,,,,,42.0,1.0,
63,,iti,,html-keyboard-response,63,64117,0.0-1.0-11.0-0.0-5.0,0,0,3,,,,,,,,,,,,,,,,,,,,,,,,,,,,,,,,,,,,,,43.0,1.0,
64,,choice,,html-keyboard-response,64,64196,0.0-1.0-12.0-0.0-0.0,0,0,3,,74.0,,,50.0,10.0,10.0,3000.0,2000.0,0.0,1.0,1.0,60-60,0.0,,watch,tent,60.0,60.0,watch8,tent14,60.0,60.0,2239.jpg,inflatable-tent.jpg,/static/Category_learning/Stimuli/Experimental_stims/watch/2239.jpg,/static/Category_learning/Stimuli/Experimental_stims/tent/inflatable-tent.jpg,1.0,watch,tent,60.0,60.0,watch8,tent14,60.0,60.0,0.0,43.074,0.074,
65,,confirmation,,html-keyboard-response,65,65628,0.0-1.0-12.0-0.0-1.0-0.0,0,0,3,,,,,,10.0,,,,,,,,,,,,,,,,,,,,,,,,,,,,,,,,44.5,1.426,
66,,isi,,html-keyboard-response,66,65731,0.0-1.0-12.0-0.0-2.0,0,0,3,,,,,,,,,,,,,,,,,,,,,,,,,,,,,,,,,,,,,,47.5,3.0,
67,,feedback,,html-keyboard-response,67,66738,0.0-1.0-12.0-0.0-3.0-0.0,0,0,3,,,,,,10.0,,,,,,,,,,,,,,,,,,,,,,,,,,,,,,,,48.5,1.0,
68,,iti,,html-keyboard-response,68,66842,0.0-1.0-12.0-0.0-5.0,0,0,3,,,,,,,,,,,,,,,,,,,,,,,,,,,,,,,,,,,,,,50.5,2.0,
69,,choice,,html-keyboard-response,69,66860,0.0-1.0-13.0-0.0-0.0,0,0,3,,15.0,,,50.0,11.0,11.0,1000.0,2000.0,0.0,1.0,0.0,40-60,,1.0,tape,nail polish,60.0,40.0,tape12,nail polish5,60.0,40.0,Frog-Tape-Dispenser_F02218A2.jpg,182_t.jpg,/static/Category_learning/Stimuli/Experimental_stims/tape/Frog-Tape-Dispenser_F02218A2.jpg,/static/Category_learning/Stimuli/Experimental_stims/nail polish/182_t.jpg,1.0,tape,nail polish,60.0,40.0,tape12,nail polish5,60.0,40.0,0.0,50.515,0.015,
70,,confirmation,,html-keyboard-response,70,68348,0.0-1.0-13.0-0.0-1.0-0.0,0,0,3,,,,,,11.0,,,,,,,,,,,,,,,,,,,,,,,,,,,,,,,,52.0,1.485,
71,,isi,,html-keyboard-response,71,68453,0.0-1.0-13.0-0.0-2.0,0,0,3,,,,,,,,,,,,,,,,,,,,,,,,,,,,,,,,,,,,,,53.0,1.0,
72,,feedback,,html-keyboard-response,72,69459,0.0-1.0-13.0-0.0-3.0-0.0,0,0,3,,,,,,11.0,,,,,,,,,,,,,,,,,,,,,,,,,,,,,,,,54.0,1.0,
73,,iti,,html-keyboard-response,73,69567,0.0-1.0-13.0-0.0-5.0,0,0,3,,,,,,,,,,,,,,,,,,,,,,,,,,,,,,,,,,,,,,56.0,2.0,
74,,choice,,html-keyboard-response,74,69665,0.0-1.0-14.0-0.0-0.0,0,0,3,,95.0,,,50.0,12.0,12.0,3500.0,1500.0,0.0,1.0,0.0,20-60,,1.0,tape,makeup compact,60.0,20.0,tape7,makeup compact6,60.0,40.0,tape dispenser.jpg,P0754_hero.jpg,/static/Category_learning/Stimuli/Experimental_stims/tape/tape dispenser.jpg,/static/Category_learning/Stimuli/Experimental_stims/makeup compact/P0754_hero.jpg,1.0,tape,makeup compact,60.0,20.0,tape7,makeup compact6,60.0,40.0,0.0,56.095,0.095,
75,,confirmation,,html-keyboard-response,75,71074,0.0-1.0-14.0-0.0-1.0-0.0,0,0,3,,,,,,12.0,,,,,,,,,,,,,,,,,,,,,,,,,,,,,,,,57.5,1.405,
76,,isi,,html-keyboard-response,76,71179,0.0-1.0-14.0-0.0-2.0,0,0,3,,,,,,,,,,,,,,,,,,,,,,,,,,,,,,,,,,,,,,61.0,3.5,
77,,feedback,,html-keyboard-response,77,72186,0.0-1.0-14.0-0.0-3.0-0.0,0,0,3,,,,,,12.0,,,,,,,,,,,,,,,,,,,,,,,,,,,,,,,,62.0,1.0,
78,,iti,,html-keyboard-response,78,72293,0.0-1.0-14.0-0.0-5.0,0,0,3,,,,,,,,,,,,,,,,,,,,,,,,,,,,,,,,,,,,,,63.5,1.5,
79,,choice,,html-keyboard-response,79,72609,0.0-1.0-15.0-0.0-0.0,0,0,3,,312.0,,,50.0,13.0,13.0,2000.0,1500.0,0.0,1.0,0.0,20-80,,1.0,bowl,microscope,80.0,20.0,bowl3,microscope15,60.0,40.0,ABOWL8.jpg,Amicroscope23.jpg,/static/Category_learning/Stimuli/Experimental_stims/bowl/ABOWL8.jpg,/static/Category_learning/Stimuli/Experimental_stims/microscope/Amicroscope23.jpg,1.0,bowl,microscope,80.0,20.0,bowl3,microscope15,60.0,40.0,0.0,63.812,0.312,
80,,confirmation,,html-keyboard-response,80,73805,0.0-1.0-15.0-0.0-1.0-0.0,0,0,3,,,,,,13.0,,,,,,,,,,,,,,,,,,,,,,,,,,,,,,,,65.0,1.188,
81,,isi,,html-keyboard-response,81,73909,0.0-1.0-15.0-0.0-2.0,0,0,3,,,,,,,,,,,,,,,,,,,,,,,,,,,,,,,,,,,,,,67.0,2.0,
82,,feedback,,html-keyboard-response,82,74914,0.0-1.0-15.0-0.0-3.0-0.0,0,0,3,,,,,,13.0,,,,,,,,,,,,,,,,,,,,,,,,,,,,,,,,68.0,1.0,
83,,iti,,html-keyboard-response,83,75019,0.0-1.0-15.0-0.0-5.0,0,0,3,,,,,,,,,,,,,,,,,,,,,,,,,,,,,,,,,,,,,,69.5,1.5,
84,,choice,,html-keyboard-response,84,75323,0.0-1.0-16.0-0.0-0.0,0,0,3,,299.0,,,50.0,14.0,14.0,1000.0,2000.0,0.0,1.0,0.0,40-80,,1.0,door knob,necklace,80.0,40.0,door knob10,necklace14,80.0,20.0,c02a578d-c6cc-44ca-8dd2-de8901e30bd7_4.jpg,necklascenew05.jpg,/static/Category_learning/Stimuli/Experimental_stims/door knob/c02a578d-c6cc-44ca-8dd2-de8901e30bd7_4.jpg,/static/Category_learning/Stimuli/Experimental_stims/necklace/necklascenew05.jpg,1.0,door knob,necklace,80.0,40.0,door knob10,necklace14,80.0,20.0,0.0,69.799,0.299,
85,,confirmation,,html-keyboard-response,85,76528,0.0-1.0-16.0-0.0-1.0-0.0,0,0,3,,,,,,14.0,,,,,,,,,,,,,,,,,,,,,,,,,,,,,,,,71.0,1.201,
86,,isi,,html-keyboard-response,86,76634,0.0-1.0-16.0-0.0-2.0,0,0,3,,,,,,,,,,,,,,,,,,,,,,,,,,,,,,,,,,,,,,72.0,1.0,
87,,feedback,,html-keyboard-response,87,77639,0.0-1.0-16.0-0.0-3.0-0.0,0,0,3,,,,,,14.0,,,,,,,,,,,,,,,,,,,,,,,,,,,,,,,,73.0,1.0,
88,,iti,,html-keyboard-response,88,77742,0.0-1.0-16.0-0.0-5.0,0,0,3,,,,,,,,,,,,,,,,,,,,,,,,,,,,,,,,,,,,,,75.0,2.0,
89,,choice,,html-keyboard-response,89,77928,0.0-1.0-17.0-0.0-0.0,0,0,3,,181.0,,,50.0,15.0,15.0,1000.0,1500.0,0.0,1.0,0.0,20-40,,0.0,motorcycle,sofa,20.0,40.0,motorcycle10,sofa5,20.0,60.0,motorcycle17.jpg,ALOVSEA14.jpg,/static/Category_learning/Stimuli/Experimental_stims/motorcycle/motorcycle17.jpg,/static/Category_learning/Stimuli/Experimental_stims/sofa/ALOVSEA14.jpg,1.0,motorcycle,sofa,20.0,40.0,motorcycle10,sofa5,20.0,60.0,0.0,75.181,0.181,
90,,confirmation,,html-keyboard-response,90,79255,0.0-1.0-17.0-0.0-1.0-0.0,0,0,3,,,,,,15.0,,,,,,,,,,,,,,,,,,,,,,,,,,,,,,,,76.5,1.319,
91,,isi,,html-keyboard-response,91,79359,0.0-1.0-17.0-0.0-2.0,0,0,3,,,,,,,,,,,,,,,,,,,,,,,,,,,,,,,,,,,,,,77.5,1.0,
92,,feedback,,html-keyboard-response,92,80364,0.0-1.0-17.0-0.0-3.0-0.0,0,0,3,,,,,,15.0,,,,,,,,,,,,,,,,,,,,,,,,,,,,,,,,78.5,1.0,
93,,iti,,html-keyboard-response,93,80470,0.0-1.0-17.0-0.0-5.0,0,0,3,,,,,,,,,,,,,,,,,,,,,,,,,,,,,,,,,,,,,,80.0,1.5,
94,,choice,,html-keyboard-response,94,81038,0.0-1.0-18.0-0.0-0.0,0,0,3,,564.0,,,50.0,16.0,16.0,1000.0,3000.0,0.0,1.0,0.0,60-60,,,telescope,yarn,60.0,60.0,telescope6,yarn15,80.0,80.0,LO-telescope-89769.jpg,rainbowscarf-600x394.jpg,/static/Category_learning/Stimuli/Experimental_stims/telescope/LO-telescope-89769.jpg,/static/Category_learning/Stimuli/Experimental_stims/yarn/rainbowscarf-600x394.jpg,1.0,telescope,yarn,60.0,60.0,telescope6,yarn15,80.0,80.0,0.0,80.564,0.564,
95,,confirmation,,html-keyboard-response,95,81982,0.0-1.0-18.0-0.0-1.0-0.0,0,0,3,,,,,,16.0,,,,,,,,,,,,,,,,,,,,,,,,,,,,,,,,81.5,0.936,
96,,isi,,html-keyboard-response,96,82090,0.0-1.0-18.0-0.0-2.0,0,0,3,,,,,,,,,,,,,,,,,,,,,,,,,,,,,,,,,,,,,,82.5,1.0,
97,,feedback,,html-keyboard-response,97,83093,0.0-1.0-18.0-0.0-3.0-0.0,0,0,3,,,,,,16.0,,,,,,,,,,,,,,,,,,,,,,,,,,,,,,,,83.5,1.0,
98,,iti,,html-keyboard-response,98,83198,0.0-1.0-18.0-0.0-5.0,0,0,3,,,,,,,,,,,,,,,,,,,,,,,,,,,,,,,,,,,,,,86.5,3.0,
99,,choice,,html-keyboard-response,99,83879,0.0-1.0-19.0-0.0-0.0,0,0,3,,675.0,,,50.0,17.0,17.0,1500.0,2000.0,0.0,1.0,0.0,20-20,,,license plate,makeup compact,20.0,20.0,license plate10,makeup compact7,40.0,0.0,pa-nfn-011.jpg,P187133_hero.jpg,/static/Category_learning/Stimuli/Experimental_stims/license plate/pa-nfn-011.jpg,/static/Category_learning/Stimuli/Experimental_stims/makeup compact/P187133_hero.jpg,1.0,license plate,makeup compact,20.0,20.0,license plate10,makeup compact7,40.0,0.0,0.0,87.175,0.675,
100,,confirmation,,html-keyboard-response,100,84709,0.0-1.0-19.0-0.0-1.0-0.0,0,0,3,,,,,,17.0,,,,,,,,,,,,,,,,,,,,,,,,,,,,,,,,88.0,0.825,
101,,isi,,html-keyboard-response,101,84815,0.0-1.0-19.0-0.0-2.0,0,0,3,,,,,,,,,,,,,,,,,,,,,,,,,,,,,,,,,,,,,,89.5,1.5,
102,,feedback,,html-keyboard-response,102,85821,0.0-1.0-19.0-0.0-3.0-0.0,0,0,3,,,,,,17.0,,,,,,,,,,,,,,,,,,,,,,,,,,,,,,,,90.5,1.0,
103,,iti,,html-keyboard-response,103,85930,0.0-1.0-19.0-0.0-5.0,0,0,3,,,,,,,,,,,,,,,,,,,,,,,,,,,,,,,,,,,,,,92.5,2.0,
104,,choice,,html-keyboard-response,104,86027,0.0-1.0-20.0-0.0-0.0,0,0,3,,93.0,,,50.0,18.0,18.0,2000.0,2000.0,0.0,1.0,1.0,60-60,1.0,,tape,tape,60.0,60.0,tape12,tape7,60.0,60.0,Frog-Tape-Dispenser_F02218A2.jpg,tape dispenser.jpg,/static/Category_learning/Stimuli/Experimental_stims/tape/Frog-Tape-Dispenser_F02218A2.jpg,/static/Category_learning/Stimuli/Experimental_stims/tape/tape dispenser.jpg,1.0,tape,tape,60.0,60.0,tape12,tape7,60.0,60.0,0.0,92.593,0.093,
105,,confirmation,,html-keyboard-response,105,87441,0.0-1.0-20.0-0.0-1.0-0.0,0,0,3,,,,,,18.0,,,,,,,,,,,,,,,,,,,,,,,,,,,,,,,,94.0,1.407,
106,,isi,,html-keyboard-response,106,87547,0.0-1.0-20.0-0.0-2.0,0,0,3,,,,,,,,,,,,,,,,,,,,,,,,,,,,,,,,,,,,,,96.0,2.0,
107,,feedback,,html-keyboard-response,107,88552,0.0-1.0-20.0-0.0-3.0-0.0,0,0,3,,,,,,18.0,,,,,,,,,,,,,,,,,,,,,,,,,,,,,,,,97.0,1.0,
108,,iti,,html-keyboard-response,108,88656,0.0-1.0-20.0-0.0-5.0,0,0,3,,,,,,,,,,,,,,,,,,,,,,,,,,,,,,,,,,,,,,99.0,2.0,
109,,choice,,html-keyboard-response,109,88869,0.0-1.0-21.0-0.0-0.0,0,0,3,,206.0,,,50.0,19.0,19.0,1500.0,1500.0,0.0,1.0,1.0,20-40,0.0,,license plate,poker card,20.0,40.0,license plate10,poker card12,40.0,20.0,pa-nfn-011.jpg,22865676.thl.jpg,/static/Category_learning/Stimuli/Experimental_stims/license plate/pa-nfn-011.jpg,/static/Category_learning/Stimuli/Experimental_stims/poker card/22865676.thl.jpg,1.0,license plate,poker card,20.0,40.0,license plate10,poker card12,40.0,20.0,0.0,99.206,0.206,
110,,confirmation,,html-keyboard-response,110,90171,0.0-1.0-21.0-0.0-1.0-0.0,0,0,3,,,,,,19.0,,,,,,,,,,,,,,,,,,,,,,,,,,,,,,,,100.5,1.294,
111,,isi,,html-keyboard-response,111,90274,0.0-1.0-21.0-0.0-2.0,0,0,3,,,,,,,,,,,,,,,,,,,,,,,,,,,,,,,,,,,,,,102.0,1.5,
112,,feedback,,html-keyboard-response,112,91278,0.0-1.0-21.0-0.0-3.0-0.0,0,0,3,,,,,,19.0,,,,,,,,,,,,,,,,,,,,,,,,,,,,,,,,103.0,1.0,
113,,iti,,html-keyboard-response,113,91384,0.0-1.0-21.0-0.0-5.0,0,0,3,,,,,,,,,,,,,,,,,,,,,,,,,,,,,,,,,,,,,,104.5,1.5,
114,,choice,,html-keyboard-response,114,91672,0.0-1.0-22.0-0.0-0.0,0,0,3,,283.0,,,50.0,20.0,20.0,2000.0,1000.0,0.0,1.0,0.0,40-80,,0.0,patio lounge chair,bongo,40.0,80.0,patio lounge chair11,bongo1,60.0,100.0,51830.jpg,ABONGO22.jpg,/static/Category_learning/Stimuli/Experimental_stims/patio lounge chair/51830.jpg,/static/Category_learning/Stimuli/Experimental_stims/bongo/ABONGO22.jpg,1.0,patio lounge chair,bongo,40.0,80.0,patio lounge chair11,bongo1,60.0,100.0,0.0,104.783,0.283,
115,,confirmation,,html-keyboard-response,115,92895,0.0-1.0-22.0-0.0-1.0-0.0,0,0,3,,,,,,20.0,,,,,,,,,,,,,,,,,,,,,,,,,,,,,,,,106.0,1.217,
116,,isi,,html-keyboard-response,116,93001,0.0-1.0-22.0-0.0-2.0,0,0,3,,,,,,,,,,,,,,,,,,,,,,,,,,,,,,,,,,,,,,108.0,2.0,
117,,feedback,,html-keyboard-response,117,94008,0.0-1.0-22.0-0.0-3.0-0.0,0,0,3,,,,,,20.0,,,,,,,,,,,,,,,,,,,,,,,,,,,,,,,,109.0,1.0,
118,,iti,,html-keyboard-response,118,94113,0.0-1.0-22.0-0.0-5.0,0,0,3,,,,,,,,,,,,,,,,,,,,,,,,,,,,,,,,,,,,,,110.0,1.0,
119,,choice,,html-keyboard-response,119,94724,0.0-1.0-23.0-0.0-0.0,0,0,3,,608.0,,,50.0,21.0,21.0,1500.0,1500.0,0.0,1.0,1.0,80-80,0.0,,bowl,door knob,80.0,80.0,bowl3,door knob10,60.0,80.0,ABOWL8.jpg,c02a578d-c6cc-44ca-8dd2-de8901e30bd7_4.jpg,/static/Category_learning/Stimuli/Experimental_stims/bowl/ABOWL8.jpg,/static/Category_learning/Stimuli/Experimental_stims/door knob/c02a578d-c6cc-44ca-8dd2-de8901e30bd7_4.jpg,1.0,bowl,door knob,80.0,80.0,bowl3,door knob10,60.0,80.0,0.0,110.608,0.608,
120,,confirmation,,html-keyboard-response,120,95620,0.0-1.0-23.0-0.0-1.0-0.0,0,0,3,,,,,,21.0,,,,,,,,,,,,,,,,,,,,,,,,,,,,,,,,111.5,0.892,
121,,isi,,html-keyboard-response,121,95725,0.0-1.0-23.0-0.0-2.0,0,0,3,,,,,,,,,,,,,,,,,,,,,,,,,,,,,,,,,,,,,,113.0,1.5,
122,,feedback,,html-keyboard-response,122,96734,0.0-1.0-23.0-0.0-3.0-0.0,0,0,3,,,,,,21.0,,,,,,,,,,,,,,,,,,,,,,,,,,,,,,,,114.0,1.0,
123,,iti,,html-keyboard-response,123,96838,0.0-1.0-23.0-0.0-5.0,0,0,3,,,,,,,,,,,,,,,,,,,,,,,,,,,,,,,,,,,,,,115.5,1.5,
124,,choice,,html-keyboard-response,124,96992,0.0-1.0-24.0-0.0-0.0,0,0,3,,150.0,,,50.0,22.0,22.0,2000.0,2000.0,0.0,1.0,0.0,40-80,,1.0,baby carriage,seashell,80.0,40.0,baby carriage6,seashell2,60.0,20.0,Baby_Stroller-1.jpg,ph_stri_seashell.jpg,/static/Category_learning/Stimuli/Experimental_stims/baby carriage/Baby_Stroller-1.jpg,/static/Category_learning/Stimuli/Experimental_stims/seashell/ph_stri_seashell.jpg,1.0,baby carriage,seashell,80.0,40.0,baby carriage6,seashell2,60.0,20.0,0.0,115.65,0.15,
125,,confirmation,,html-keyboard-response,125,98346,0.0-1.0-24.0-0.0-1.0-0.0,0,0,3,,,,,,22.0,,,,,,,,,,,,,,,,,,,,,,,,,,,,,,,,117.0,1.35,
126,,isi,,html-keyboard-response,126,98453,0.0-1.0-24.0-0.0-2.0,0,0,3,,,,,,,,,,,,,,,,,,,,,,,,,,,,,,,,,,,,,,119.0,2.0,
127,,feedback,,html-keyboard-response,127,99458,0.0-1.0-24.0-0.0-3.0-0.0,0,0,3,,,,,,22.0,,,,,,,,,,,,,,,,,,,,,,,,,,,,,,,,120.0,1.0,
128,,iti,,html-keyboard-response,128,99567,0.0-1.0-24.0-0.0-5.0,0,0,3,,,,,,,,,,,,,,,,,,,,,,,,,,,,,,,,,,,,,,122.0,2.0,
129,,choice,,html-keyboard-response,129,99625,0.0-1.0-25.0-0.0-0.0,0,0,3,,54.0,,,50.0,23.0,23.0,1000.0,1000.0,0.0,1.0,0.0,20-80,,1.0,dresser,hat,80.0,20.0,dresser12,hat4,80.0,20.0,ADRESSE58.jpg,JS370.jpg,/static/Category_learning/Stimuli/Experimental_stims/dresser/ADRESSE58.jpg,/static/Category_learning/Stimuli/Experimental_stims/hat/JS370.jpg,1.0,dresser,hat,80.0,20.0,dresser12,hat4,80.0,20.0,0.0,122.054,0.054,
130,,confirmation,,html-keyboard-response,130,101078,0.0-1.0-25.0-0.0-1.0-0.0,0,0,3,,,,,,23.0,,,,,,,,,,,,,,,,,,,,,,,,,,,,,,,,123.5,1.446,
131,,isi,,html-keyboard-response,131,101185,0.0-1.0-25.0-0.0-2.0,0,0,3,,,,,,,,,,,,,,,,,,,,,,,,,,,,,,,,,,,,,,124.5,1.0,
132,,feedback,,html-keyboard-response,132,102193,0.0-1.0-25.0-0.0-3.0-0.0,0,0,3,,,,,,23.0,,,,,,,,,,,,,,,,,,,,,,,,,,,,,,,,125.5,1.0,
133,,iti,,html-keyboard-response,133,102301,0.0-1.0-25.0-0.0-5.0,0,0,3,,,,,,,,,,,,,,,,,,,,,,,,,,,,,,,,,,,,,,126.5,1.0,
134,,choice,,html-keyboard-response,134,103076,0.0-1.0-26.0-0.0-0.0,0,0,3,,771.0,,,50.0,24.0,24.0,2000.0,2000.0,0.0,1.0,0.0,20-80,,1.0,door knob,hammer,80.0,20.0,door knob13,hammer15,100.0,0.0,500_CLAWALBC.jpg,Vaughan-32-oz-Hickory-Handle-Ball-Pein-Hammer-S432-B0001LRUJM-L-ARCQ0EBO8TR73_.jpg,/static/Category_learning/Stimuli/Experimental_stims/door knob/500_CLAWALBC.jpg,/static/Category_learning/Stimuli/Experimental_stims/hammer/Vaughan-32-oz-Hickory-Handle-Ball-Pein-Hammer-S432-B0001LRUJM-L-ARCQ0EBO8TR73_.jpg,1.0,door knob,hammer,80.0,20.0,door knob13,hammer15,100.0,0.0,0.0,127.271,0.771,
135,,confirmation,,html-keyboard-response,135,103809,0.0-1.0-26.0-0.0-1.0-0.0,0,0,3,,,,,,24.0,,,,,,,,,,,,,,,,,,,,,,,,,,,,,,,,128.0,0.729,
136,,isi,,html-keyboard-response,136,103914,0.0-1.0-26.0-0.0-2.0,0,0,3,,,,,,,,,,,,,,,,,,,,,,,,,,,,,,,,,,,,,,130.0,2.0,
137,,feedback,,html-keyboard-response,137,104920,0.0-1.0-26.0-0.0-3.0-0.0,0,0,3,,,,,,24.0,,,,,,,,,,,,,,,,,,,,,,,,,,,,,,,,131.0,1.0,
138,,iti,,html-keyboard-response,138,105028,0.0-1.0-26.0-0.0-5.0,0,0,3,,,,,,,,,,,,,,,,,,,,,,,,,,,,,,,,,,,,,,133.0,2.0,
139,,choice,,html-keyboard-response,139,105302,0.0-1.0-27.0-0.0-0.0,0,0,3,,271.0,,,50.0,25.0,25.0,1000.0,1500.0,0.0,1.0,0.0,20-40,,0.0,hammer,nail polish,20.0,40.0,hammer7,nail polish12,40.0,40.0,hammer01.jpg,laquerdUP.jpg,/static/Category_learning/Stimuli/Experimental_stims/hammer/hammer01.jpg,/static/Category_learning/Stimuli/Experimental_stims/nail polish/laquerdUP.jpg,1.0,hammer,nail polish,20.0,40.0,hammer7,nail polish12,40.0,40.0,0.0,133.271,0.271,
140,,confirmation,,html-keyboard-response,140,106540,0.0-1.0-27.0-0.0-1.0-0.0,0,0,3,,,,,,25.0,,,,,,,,,,,,,,,,,,,,,,,,,,,,,,,,134.5,1.229,
141,,isi,,html-keyboard-response,141,106644,0.0-1.0-27.0-0.0-2.0,0,0,3,,,,,,,,,,,,,,,,,,,,,,,,,,,,,,,,,,,,,,135.5,1.0,
142,,feedback,,html-keyboard-response,142,107649,0.0-1.0-27.0-0.0-3.0-0.0,0,0,3,,,,,,25.0,,,,,,,,,,,,,,,,,,,,,,,,,,,,,,,,136.5,1.0,
143,,iti,,html-keyboard-response,143,107758,0.0-1.0-27.0-0.0-5.0,0,0,3,,,,,,,,,,,,,,,,,,,,,,,,,,,,,,,,,,,,,,138.0,1.5,
144,,choice,,html-keyboard-response,144,108175,0.0-1.0-28.0-0.0-0.0,0,0,3,,413.0,,,51.0,26.0,26.0,3500.0,1000.0,0.0,1.0,0.0,20-60,,1.0,stool,makeup compact,60.0,20.0,stool4,makeup compact5,40.0,40.0,ASTOOL22.jpg,P109965_hero.jpg,/static/Category_learning/Stimuli/Experimental_stims/stool/ASTOOL22.jpg,/static/Category_learning/Stimuli/Experimental_stims/makeup compact/P109965_hero.jpg,0.0,makeup compact,stool,20.0,60.0,makeup compact5,stool4,40.0,40.0,0.0,138.413,0.413,
145,,confirmation,,html-keyboard-response,145,109270,0.0-1.0-28.0-0.0-1.0-0.0,0,0,3,,,,,,26.0,,,,,,,,,,,,,,,,,,,,,,,,,,,,,,,,139.5,1.087,
146,,isi,,html-keyboard-response,146,109375,0.0-1.0-28.0-0.0-2.0,0,0,3,,,,,,,,,,,,,,,,,,,,,,,,,,,,,,,,,,,,,,143.0,3.5,
147,,feedback,,html-keyboard-response,147,110379,0.0-1.0-28.0-0.0-3.0-0.0,0,0,3,,,,,,26.0,,,,,,,,,,,,,,,,,,,,,,,,,,,,,,,,144.0,1.0,
148,,iti,,html-keyboard-response,148,110485,0.0-1.0-28.0-0.0-5.0,0,0,3,,,,,,,,,,,,,,,,,,,,,,,,,,,,,,,,,,,,,,145.0,1.0,
149,,choice,,html-keyboard-response,149,110810,0.0-1.0-29.0-0.0-0.0,0,0,3,,321.0,,,51.0,27.0,27.0,1500.0,3500.0,0.0,1.0,0.0,40-80,,1.0,flashlight,small table,80.0,40.0,flashlight12,small table8,80.0,60.0,new05.jpg,ATABLE8.jpg,/static/Category_learning/Stimuli/Experimental_stims/flashlight/new05.jpg,/static/Category_learning/Stimuli/Experimental_stims/small table/ATABLE8.jpg,0.0,small table,flashlight,40.0,80.0,small table8,flashlight12,60.0,80.0,0.0,145.321,0.321,
150,,confirmation,,html-keyboard-response,150,111994,0.0-1.0-29.0-0.0-1.0-0.0,0,0,3,,,,,,27.0,,,,,,,,,,,,,,,,,,,,,,,,,,,,,,,,146.5,1.179,
151,,isi,,html-keyboard-response,151,112101,0.0-1.0-29.0-0.0-2.0,0,0,3,,,,,,,,,,,,,,,,,,,,,,,,,,,,,,,,,,,,,,148.0,1.5,
152,,feedback,,html-keyboard-response,152,113108,0.0-1.0-29.0-0.0-3.0-0.0,0,0,3,,,,,,27.0,,,,,,,,,,,,,,,,,,,,,,,,,,,,,,,,149.0,1.0,
153,,iti,,html-keyboard-response,153,113214,0.0-1.0-29.0-0.0-5.0,0,0,3,,,,,,,,,,,,,,,,,,,,,,,,,,,,,,,,,,,,,,152.5,3.5,
154,,choice,,html-keyboard-response,154,113440,0.0-1.0-30.0-0.0-0.0,0,0,3,,222.0,,,51.0,28.0,28.0,3000.0,3000.0,0.0,1.0,1.0,40-80,0.0,,baby carriage,small table,80.0,40.0,baby carriage6,small table8,60.0,60.0,Baby_Stroller-1.jpg,ATABLE8.jpg,/static/Category_learning/Stimuli/Experimental_stims/baby carriage/Baby_Stroller-1.jpg,/static/Category_learning/Stimuli/Experimental_stims/small table/ATABLE8.jpg,0.0,small table,baby carriage,40.0,80.0,small table8,baby carriage6,60.0,60.0,0.0,152.722,0.222,
155,,confirmation,,html-keyboard-response,155,114724,0.0-1.0-30.0-0.0-1.0-0.0,0,0,3,,,,,,28.0,,,,,,,,,,,,,,,,,,,,,,,,,,,,,,,,154.0,1.278,
156,,isi,,html-keyboard-response,156,114831,0.0-1.0-30.0-0.0-2.0,0,0,3,,,,,,,,,,,,,,,,,,,,,,,,,,,,,,,,,,,,,,157.0,3.0,
157,,feedback,,html-keyboard-response,157,115836,0.0-1.0-30.0-0.0-3.0-0.0,0,0,3,,,,,,28.0,,,,,,,,,,,,,,,,,,,,,,,,,,,,,,,,158.0,1.0,
158,,iti,,html-keyboard-response,158,115943,0.0-1.0-30.0-0.0-5.0,0,0,3,,,,,,,,,,,,,,,,,,,,,,,,,,,,,,,,,,,,,,161.0,3.0,
159,,choice,,html-keyboard-response,159,116488,0.0-1.0-31.0-0.0-0.0,0,0,3,,541.0,,,51.0,29.0,29.0,3500.0,1000.0,0.0,1.0,0.0,20-80,,1.0,bongo,key chain,80.0,20.0,bongo8,key chain10,80.0,0.0,26390661.thl.jpg,Smurfs_Keychains_Smurf_Row_Boat.jpg,/static/Category_learning/Stimuli/Experimental_stims/bongo/26390661.thl.jpg,/static/Category_learning/Stimuli/Experimental_stims/key chain/Smurfs_Keychains_Smurf_Row_Boat.jpg,0.0,key chain,bongo,20.0,80.0,key chain10,bongo8,0.0,80.0,0.0,161.541,0.541,
160,,confirmation,,html-keyboard-response,160,117452,0.0-1.0-31.0-0.0-1.0-0.0,0,0,3,,,,,,29.0,,,,,,,,,,,,,,,,,,,,,,,,,,,,,,,,162.5,0.959,
161,,isi,,html-keyboard-response,161,117559,0.0-1.0-31.0-0.0-2.0,0,0,3,,,,,,,,,,,,,,,,,,,,,,,,,,,,,,,,,,,,,,166.0,3.5,
162,,feedback,,html-keyboard-response,162,118567,0.0-1.0-31.0-0.0-3.0-0.0,0,0,3,,,,,,29.0,,,,,,,,,,,,,,,,,,,,,,,,,,,,,,,,167.0,1.0,
163,,iti,,html-keyboard-response,163,118670,0.0-1.0-31.0-0.0-5.0,0,0,3,,,,,,,,,,,,,,,,,,,,,,,,,,,,,,,,,,,,,,168.0,1.0,
164,,choice,,html-keyboard-response,164,118902,0.0-1.0-32.0-0.0-0.0,0,0,3,,228.0,,,51.0,30.0,30.0,1000.0,2000.0,0.0,1.0,0.0,60-80,,0.0,tape,baby carriage,60.0,80.0,tape15,baby carriage10,80.0,100.0,MMMC15BK.jpg,peg_perego_uno_blu.jpg,/static/Category_learning/Stimuli/Experimental_stims/tape/MMMC15BK.jpg,/static/Category_learning/Stimuli/Experimental_stims/baby carriage/peg_perego_uno_blu.jpg,0.0,baby carriage,tape,80.0,60.0,baby carriage10,tape15,100.0,80.0,0.0,168.228,0.228,
165,,confirmation,,html-keyboard-response,165,120180,0.0-1.0-32.0-0.0-1.0-0.0,0,0,3,,,,,,30.0,,,,,,,,,,,,,,,,,,,,,,,,,,,,,,,,169.5,1.272,
166,,isi,,html-keyboard-response,166,120288,0.0-1.0-32.0-0.0-2.0,0,0,3,,,,,,,,,,,,,,,,,,,,,,,,,,,,,,,,,,,,,,170.5,1.0,
167,,feedback,,html-keyboard-response,167,121297,0.0-1.0-32.0-0.0-3.0-0.0,0,0,3,,,,,,30.0,,,,,,,,,,,,,,,,,,,,,,,,,,,,,,,,171.5,1.0,
168,,iti,,html-keyboard-response,168,121403,0.0-1.0-32.0-0.0-5.0,0,0,3,,,,,,,,,,,,,,,,,,,,,,,,,,,,,,,,,,,,,,173.5,2.0,
169,,choice,,html-keyboard-response,169,121982,0.0-1.0-33.0-0.0-0.0,0,0,3,,572.0,,,51.0,31.0,31.0,1000.0,1000.0,0.0,1.0,1.0,40-80,0.0,,dresser,patio lounge chair,80.0,40.0,dresser12,patio lounge chair11,80.0,60.0,ADRESSE58.jpg,51830.jpg,/static/Category_learning/Stimuli/Experimental_stims/dresser/ADRESSE58.jpg,/static/Category_learning/Stimuli/Experimental_stims/patio lounge chair/51830.jpg,0.0,patio lounge chair,dresser,40.0,80.0,patio lounge chair11,dresser12,60.0,80.0,0.0,174.072,0.572,
170,,confirmation,,html-keyboard-response,170,122918,0.0-1.0-33.0-0.0-1.0-0.0,0,0,3,,,,,,31.0,,,,,,,,,,,,,,,,,,,,,,,,,,,,,,,,175.0,0.928,
171,,isi,,html-keyboard-response,171,123026,0.0-1.0-33.0-0.0-2.0,0,0,3,,,,,,,,,,,,,,,,,,,,,,,,,,,,,,,,,,,,,,176.0,1.0,
172,,feedback,,html-keyboard-response,172,124034,0.0-1.0-33.0-0.0-3.0-0.0,0,0,3,,,,,,31.0,,,,,,,,,,,,,,,,,,,,,,,,,,,,,,,,177.0,1.0,
173,,iti,,html-keyboard-response,173,124139,0.0-1.0-33.0-0.0-5.0,0,0,3,,,,,,,,,,,,,,,,,,,,,,,,,,,,,,,,,,,,,,178.0,1.0,
174,,choice,,html-keyboard-response,174,124452,0.0-1.0-34.0-0.0-0.0,0,0,3,,309.0,,,51.0,32.0,32.0,1000.0,1000.0,0.0,1.0,0.0,20-60,,0.0,frame,vase,20.0,60.0,frame4,vase9,40.0,60.0,AFRAME125.jpg,Avasewithang2.jpg,/static/Category_learning/Stimuli/Experimental_stims/frame/AFRAME125.jpg,/static/Category_learning/Stimuli/Experimental_stims/vase/Avasewithang2.jpg,0.0,vase,frame,60.0,20.0,vase9,frame4,60.0,40.0,0.0,178.309,0.309,
175,,confirmation,,html-keyboard-response,175,125646,0.0-1.0-34.0-0.0-1.0-0.0,0,0,3,,,,,,32.0,,,,,,,,,,,,,,,,,,,,,,,,,,,,,,,,179.5,1.191,
176,,isi,,html-keyboard-response,176,125749,0.0-1.0-34.0-0.0-2.0,0,0,3,,,,,,,,,,,,,,,,,,,,,,,,,,,,,,,,,,,,,,180.5,1.0,
177,,feedback,,html-keyboard-response,177,126757,0.0-1.0-34.0-0.0-3.0-0.0,0,0,3,,,,,,32.0,,,,,,,,,,,,,,,,,,,,,,,,,,,,,,,,181.5,1.0,
178,,iti,,html-keyboard-response,178,126864,0.0-1.0-34.0-0.0-5.0,0,0,3,,,,,,,,,,,,,,,,,,,,,,,,,,,,,,,,,,,,,,182.5,1.0,
179,,choice,,html-keyboard-response,179,127413,0.0-1.0-35.0-0.0-0.0,0,0,3,,545.0,,,51.0,33.0,33.0,1000.0,1500.0,0.0,1.0,0.0,40-40,,,power strip,necklace,40.0,40.0,power strip5,necklace3,60.0,20.0,93e4a283-bcd6-4ad1-8add-339658cda0fc_400.jpg,26388201.thl.jpg,/static/Category_learning/Stimuli/Experimental_stims/power strip/93e4a283-bcd6-4ad1-8add-339658cda0fc_400.jpg,/static/Category_learning/Stimuli/Experimental_stims/necklace/26388201.thl.jpg,0.0,necklace,power strip,40.0,40.0,necklace3,power strip5,20.0,60.0,0.0,183.045,0.545,
180,,confirmation,,html-keyboard-response,180,128377,0.0-1.0-35.0-0.0-1.0-0.0,0,0,3,,,,,,33.0,,,,,,,,,,,,,,,,,,,,,,,,,,,,,,,,184.0,0.955,
181,,isi,,html-keyboard-response,181,128481,0.0-1.0-35.0-0.0-2.0,0,0,3,,,,,,,,,,,,,,,,,,,,,,,,,,,,,,,,,,,,,,185.0,1.0,
182,,feedback,,html-keyboard-response,182,129488,0.0-1.0-35.0-0.0-3.0-0.0,0,0,3,,,,,,33.0,,,,,,,,,,,,,,,,,,,,,,,,,,,,,,,,186.0,1.0,
183,,iti,,html-keyboard-response,183,129592,0.0-1.0-35.0-0.0-5.0,0,0,3,,,,,,,,,,,,,,,,,,,,,,,,,,,,,,,,,,,,,,187.5,1.5,
184,,choice,,html-keyboard-response,184,130080,0.0-1.0-36.0-0.0-0.0,0,0,3,,484.0,,,51.0,34.0,34.0,2000.0,3000.0,0.0,1.0,0.0,40-60,,0.0,patio lounge chair,yarn,40.0,60.0,patio lounge chair14,yarn8,40.0,40.0,2987951.jpg,smonlineyarn-285x250.jpg,/static/Category_learning/Stimuli/Experimental_stims/patio lounge chair/2987951.jpg,/static/Category_learning/Stimuli/Experimental_stims/yarn/smonlineyarn-285x250.jpg,0.0,yarn,patio lounge chair,60.0,40.0,yarn8,patio lounge chair14,40.0,40.0,0.0,187.984,0.484,
185,,confirmation,,html-keyboard-response,185,131101,0.0-1.0-36.0-0.0-1.0-0.0,0,0,3,,,,,,34.0,,,,,,,,,,,,,,,,,,,,,,,,,,,,,,,,189.0,1.016,
186,,isi,,html-keyboard-response,186,131205,0.0-1.0-36.0-0.0-2.0,0,0,3,,,,,,,,,,,,,,,,,,,,,,,,,,,,,,,,,,,,,,191.0,2.0,
187,,feedback,,html-keyboard-response,187,132213,0.0-1.0-36.0-0.0-3.0-0.0,0,0,3,,,,,,34.0,,,,,,,,,,,,,,,,,,,,,,,,,,,,,,,,192.0,1.0,
188,,iti,,html-keyboard-response,188,132321,0.0-1.0-36.0-0.0-5.0,0,0,3,,,,,,,,,,,,,,,,,,,,,,,,,,,,,,,,,,,,,,195.0,3.0,
189,,choice,,html-keyboard-response,189,132561,0.0-1.0-37.0-0.0-0.0,0,0,3,,236.0,,,51.0,35.0,35.0,1500.0,3500.0,0.0,1.0,1.0,20-20,0.0,,hammer,key chain,20.0,20.0,hammer7,key chain10,40.0,0.0,hammer01.jpg,Smurfs_Keychains_Smurf_Row_Boat.jpg,/static/Category_learning/Stimuli/Experimental_stims/hammer/hammer01.jpg,/static/Category_learning/Stimuli/Experimental_stims/key chain/Smurfs_Keychains_Smurf_Row_Boat.jpg,0.0,key chain,hammer,20.0,20.0,key chain10,hammer7,0.0,40.0,0.0,195.236,0.236,
190,,confirmation,,html-keyboard-response,190,133832,0.0-1.0-37.0-0.0-1.0-0.0,0,0,3,,,,,,35.0,,,,,,,,,,,,,,,,,,,,,,,,,,,,,,,,196.5,1.264,
191,,isi,,html-keyboard-response,191,133936,0.0-1.0-37.0-0.0-2.0,0,0,3,,,,,,,,,,,,,,,,,,,,,,,,,,,,,,,,,,,,,,198.0,1.5,
192,,feedback,,html-keyboard-response,192,134940,0.0-1.0-37.0-0.0-3.0-0.0,0,0,3,,,,,,35.0,,,,,,,,,,,,,,,,,,,,,,,,,,,,,,,,199.0,1.0,
193,,iti,,html-keyboard-response,193,135046,0.0-1.0-37.0-0.0-5.0,0,0,3,,,,,,,,,,,,,,,,,,,,,,,,,,,,,,,,,,,,,,202.5,3.5,
194,,choice,,html-keyboard-response,194,135129,0.0-1.0-38.0-0.0-0.0,0,0,3,,79.0,,,51.0,36.0,36.0,1500.0,2000.0,0.0,1.0,1.0,20-80,0.0,,baby carriage,motorcycle,80.0,20.0,baby carriage10,motorcycle10,100.0,20.0,peg_perego_uno_blu.jpg,motorcycle17.jpg,/static/Category_learning/Stimuli/Experimental_stims/baby carriage/peg_perego_uno_blu.jpg,/static/Category_learning/Stimuli/Experimental_stims/motorcycle/motorcycle17.jpg,0.0,motorcycle,baby carriage,20.0,80.0,motorcycle10,baby carriage10,20.0,100.0,0.0,202.579,0.079,
195,,confirmation,,html-keyboard-response,195,136554,0.0-1.0-38.0-0.0-1.0-0.0,0,0,3,,,,,,36.0,,,,,,,,,,,,,,,,,,,,,,,,,,,,,,,,204.0,1.421,
196,,isi,,html-keyboard-response,196,136661,0.0-1.0-38.0-0.0-2.0,0,0,3,,,,,,,,,,,,,,,,,,,,,,,,,,,,,,,,,,,,,,205.5,1.5,
197,,feedback,,html-keyboard-response,197,137669,0.0-1.0-38.0-0.0-3.0-0.0,0,0,3,,,,,,36.0,,,,,,,,,,,,,,,,,,,,,,,,,,,,,,,,206.5,1.0,
198,,iti,,html-keyboard-response,198,137775,0.0-1.0-38.0-0.0-5.0,0,0,3,,,,,,,,,,,,,,,,,,,,,,,,,,,,,,,,,,,,,,208.5,2.0,
199,,choice,,html-keyboard-response,199,137953,0.0-1.0-39.0-0.0-0.0,0,0,3,,174.0,,,51.0,37.0,37.0,1000.0,1000.0,0.0,1.0,0.0,60-60,,,tape,train,60.0,60.0,tape10,train6,80.0,40.0,26377601.thl.jpg,train9.jpg,/static/Category_learning/Stimuli/Experimental_stims/tape/26377601.thl.jpg,/static/Category_learning/Stimuli/Experimental_stims/train/train9.jpg,0.0,train,tape,60.0,60.0,train6,tape10,40.0,80.0,0.0,208.674,0.174,
200,,confirmation,,html-keyboard-response,200,139284,0.0-1.0-39.0-0.0-1.0-0.0,0,0,3,,,,,,37.0,,,,,,,,,,,,,,,,,,,,,,,,,,,,,,,,210.0,1.326,
201,,isi,,html-keyboard-response,201,139393,0.0-1.0-39.0-0.0-2.0,0,0,3,,,,,,,,,,,,,,,,,,,,,,,,,,,,,,,,,,,,,,211.0,1.0,
202,,feedback,,html-keyboard-response,202,140397,0.0-1.0-39.0-0.0-3.0-0.0,0,0,3,,,,,,37.0,,,,,,,,,,,,,,,,,,,,,,,,,,,,,,,,212.0,1.0,
203,,iti,,html-keyboard-response,203,140504,0.0-1.0-39.0-0.0-5.0,0,0,3,,,,,,,,,,,,,,,,,,,,,,,,,,,,,,,,,,,,,,213.0,1.0,
204,,choice,,html-keyboard-response,204,140743,0.0-1.0-40.0-0.0-0.0,0,0,3,,235.0,,,51.0,38.0,38.0,1500.0,3500.0,0.0,1.0,0.0,40-80,,0.0,patio lounge chair,bowl,40.0,80.0,patio lounge chair8,bowl6,20.0,80.0,43-1.jpg,Abowl59.jpg,/static/Category_learning/Stimuli/Experimental_stims/patio lounge chair/43-1.jpg,/static/Category_learning/Stimuli/Experimental_stims/bowl/Abowl59.jpg,0.0,bowl,patio lounge chair,80.0,40.0,bowl6,patio lounge chair8,80.0,20.0,0.0,213.235,0.235,
205,,confirmation,,html-keyboard-response,205,141918,0.0-1.0-40.0-0.0-1.0-0.0,0,0,3,,,,,,38.0,,,,,,,,,,,,,,,,,,,,,,,,,,,,,,,,214.5,1.265,
206,,isi,,html-keyboard-response,206,142024,0.0-1.0-40.0-0.0-2.0,0,0,3,,,,,,,,,,,,,,,,,,,,,,,,,,,,,,,,,,,,,,216.0,1.5,
207,,feedback,,html-keyboard-response,207,143027,0.0-1.0-40.0-0.0-3.0-0.0,0,0,3,,,,,,38.0,,,,,,,,,,,,,,,,,,,,,,,,,,,,,,,,217.0,1.0,
208,,iti,,html-keyboard-response,208,143129,0.0-1.0-40.0-0.0-5.0,0,0,3,,,,,,,,,,,,,,,,,,,,,,,,,,,,,,,,,,,,,,220.5,3.5,
209,,choice,,html-keyboard-response,209,143379,0.0-1.0-41.0-0.0-0.0,0,0,3,,247.0,,,51.0,39.0,39.0,2000.0,2000.0,0.0,1.0,1.0,40-80,0.0,,bowl,necklace,80.0,40.0,bowl6,necklace3,80.0,20.0,Abowl59.jpg,26388201.thl.jpg,/static/Category_learning/Stimuli/Experimental_stims/bowl/Abowl59.jpg,/static/Category_learning/Stimuli/Experimental_stims/necklace/26388201.thl.jpg,0.0,necklace,bowl,40.0,80.0,necklace3,bowl6,20.0,80.0,0.0,220.747,0.247,
210,,confirmation,,html-keyboard-response,210,144641,0.0-1.0-41.0-0.0-1.0-0.0,0,0,3,,,,,,39.0,,,,,,,,,,,,,,,,,,,,,,,,,,,,,,,,222.0,1.253,
211,,isi,,html-keyboard-response,211,144745,0.0-1.0-41.0-0.0-2.0,0,0,3,,,,,,,,,,,,,,,,,,,,,,,,,,,,,,,,,,,,,,224.0,2.0,
212,,feedback,,html-keyboard-response,212,145753,0.0-1.0-41.0-0.0-3.0-0.0,0,0,3,,,,,,39.0,,,,,,,,,,,,,,,,,,,,,,,,,,,,,,,,225.0,1.0,
213,,iti,,html-keyboard-response,213,145858,0.0-1.0-41.0-0.0-5.0,0,0,3,,,,,,,,,,,,,,,,,,,,,,,,,,,,,,,,,,,,,,227.0,2.0,
214,,choice,,html-keyboard-response,214,145862,0.0-1.0-42.0-0.0-0.0,0,0,3,,1.0,,,51.0,40.0,40.0,1000.0,1500.0,0.0,1.0,0.0,40-60,,0.0,nail polish,watch,40.0,60.0,nail polish14,watch15,20.0,80.0,38031405.JPG,20-171-6.jpg,/static/Category_learning/Stimuli/Experimental_stims/nail polish/38031405.JPG,/static/Category_learning/Stimuli/Experimental_stims/watch/20-171-6.jpg,0.0,watch,nail polish,60.0,40.0,watch15,nail polish14,80.0,20.0,0.0,227.001,0.001,
215,,confirmation,,html-keyboard-response,215,147368,0.0-1.0-42.0-0.0-1.0-0.0,0,0,3,,,,,,40.0,,,,,,,,,,,,,,,,,,,,,,,,,,,,,,,,228.5,1.499,
216,,isi,,html-keyboard-response,216,147472,0.0-1.0-42.0-0.0-2.0,0,0,3,,,,,,,,,,,,,,,,,,,,,,,,,,,,,,,,,,,,,,229.5,1.0,
217,,feedback,,html-keyboard-response,217,148478,0.0-1.0-42.0-0.0-3.0-0.0,0,0,3,,,,,,40.0,,,,,,,,,,,,,,,,,,,,,,,,,,,,,,,,230.5,1.0,
218,,iti,,html-keyboard-response,218,148582,0.0-1.0-42.0-0.0-5.0,0,0,3,,,,,,,,,,,,,,,,,,,,,,,,,,,,,,,,,,,,,,232.0,1.5,
219,,choice,,html-keyboard-response,219,149032,0.0-1.0-43.0-0.0-0.0,0,0,3,,447.0,,,51.0,41.0,41.0,1500.0,3000.0,0.0,1.0,0.0,20-20,,,hammer,license plate,20.0,20.0,hammer5,license plate14,20.0,0.0,hammer02.jpg,fl-hel-bel.jpg,/static/Category_learning/Stimuli/Experimental_stims/hammer/hammer02.jpg,/static/Category_learning/Stimuli/Experimental_stims/license plate/fl-hel-bel.jpg,0.0,license plate,hammer,20.0,20.0,license plate14,hammer5,0.0,20.0,0.0,232.447,0.447,
220,,confirmation,,html-keyboard-response,220,150099,0.0-1.0-43.0-0.0-1.0-0.0,0,0,3,,,,,,41.0,,,,,,,,,,,,,,,,,,,,,,,,,,,,,,,,233.5,1.053,
221,,isi,,html-keyboard-response,221,150202,0.0-1.0-43.0-0.0-2.0,0,0,3,,,,,,,,,,,,,,,,,,,,,,,,,,,,,,,,,,,,,,235.0,1.5,
222,,feedback,,html-keyboard-response,222,151209,0.0-1.0-43.0-0.0-3.0-0.0,0,0,3,,,,,,41.0,,,,,,,,,,,,,,,,,,,,,,,,,,,,,,,,236.0,1.0,
223,,iti,,html-keyboard-response,223,151315,0.0-1.0-43.0-0.0-5.0,0,0,3,,,,,,,,,,,,,,,,,,,,,,,,,,,,,,,,,,,,,,239.0,3.0,
224,,choice,,html-keyboard-response,224,151548,0.0-1.0-44.0-0.0-0.0,0,0,3,,228.0,,,51.0,42.0,42.0,1500.0,1000.0,0.0,1.0,0.0,40-40,,,poker card,necklace,40.0,40.0,poker card15,necklace9,40.0,60.0,9816946.thl.jpg,ANECKLACE.jpg,/static/Category_learning/Stimuli/Experimental_stims/poker card/9816946.thl.jpg,/static/Category_learning/Stimuli/Experimental_stims/necklace/ANECKLACE.jpg,0.0,necklace,poker card,40.0,40.0,necklace9,poker card15,60.0,40.0,0.0,239.228,0.228,
225,,confirmation,,html-keyboard-response,225,152826,0.0-1.0-44.0-0.0-1.0-0.0,0,0,3,,,,,,42.0,,,,,,,,,,,,,,,,,,,,,,,,,,,,,,,,240.5,1.272,
226,,isi,,html-keyboard-response,226,152933,0.0-1.0-44.0-0.0-2.0,0,0,3,,,,,,,,,,,,,,,,,,,,,,,,,,,,,,,,,,,,,,242.0,1.5,
227,,feedback,,html-keyboard-response,227,153940,0.0-1.0-44.0-0.0-3.0-0.0,0,0,3,,,,,,42.0,,,,,,,,,,,,,,,,,,,,,,,,,,,,,,,,243.0,1.0,
228,,iti,,html-keyboard-response,228,154044,0.0-1.0-44.0-0.0-5.0,0,0,3,,,,,,,,,,,,,,,,,,,,,,,,,,,,,,,,,,,,,,244.0,1.0,
229,,choice,,html-keyboard-response,229,154571,0.0-1.0-45.0-0.0-0.0,0,0,3,,524.0,,,51.0,43.0,43.0,1000.0,3500.0,0.0,1.0,0.0,20-20,,,microscope,hammer,20.0,20.0,microscope5,hammer11,0.0,0.0,emMicroscope.jpg,8oz-hammer-copy.jpg,/static/Category_learning/Stimuli/Experimental_stims/microscope/emMicroscope.jpg,/static/Category_learning/Stimuli/Experimental_stims/hammer/8oz-hammer-copy.jpg,0.0,hammer,microscope,20.0,20.0,hammer11,microscope5,0.0,0.0,0.0,244.524,0.524,
230,,confirmation,,html-keyboard-response,230,155553,0.0-1.0-45.0-0.0-1.0-0.0,0,0,3,,,,,,43.0,,,,,,,,,,,,,,,,,,,,,,,,,,,,,,,,245.5,0.976,
231,,isi,,html-keyboard-response,231,155658,0.0-1.0-45.0-0.0-2.0,0,0,3,,,,,,,,,,,,,,,,,,,,,,,,,,,,,,,,,,,,,,246.5,1.0,
232,,feedback,,html-keyboard-response,232,156666,0.0-1.0-45.0-0.0-3.0-0.0,0,0,3,,,,,,43.0,,,,,,,,,,,,,,,,,,,,,,,,,,,,,,,,247.5,1.0,
233,,iti,,html-keyboard-response,233,156771,0.0-1.0-45.0-0.0-5.0,0,0,3,,,,,,,,,,,,,,,,,,,,,,,,,,,,,,,,,,,,,,251.0,3.5,
234,,choice,,html-keyboard-response,234,156788,0.0-1.0-46.0-0.0-0.0,0,0,3,,13.0,,,51.0,44.0,44.0,1000.0,1000.0,0.0,1.0,1.0,20-40,0.0,,license plate,necklace,20.0,40.0,license plate14,necklace9,0.0,60.0,fl-hel-bel.jpg,ANECKLACE.jpg,/static/Category_learning/Stimuli/Experimental_stims/license plate/fl-hel-bel.jpg,/static/Category_learning/Stimuli/Experimental_stims/necklace/ANECKLACE.jpg,0.0,necklace,license plate,40.0,20.0,necklace9,license plate14,60.0,0.0,0.0,251.013,0.013,
235,,confirmation,,html-keyboard-response,235,158281,0.0-1.0-46.0-0.0-1.0-0.0,0,0,3,,,,,,44.0,,,,,,,,,,,,,,,,,,,,,,,,,,,,,,,,252.5,1.487,
236,,isi,,html-keyboard-response,236,158387,0.0-1.0-46.0-0.0-2.0,0,0,3,,,,,,,,,,,,,,,,,,,,,,,,,,,,,,,,,,,,,,253.5,1.0,
237,,feedback,,html-keyboard-response,237,159392,0.0-1.0-46.0-0.0-3.0-0.0,0,0,3,,,,,,44.0,,,,,,,,,,,,,,,,,,,,,,,,,,,,,,,,254.5,1.0,
238,,iti,,html-keyboard-response,238,159501,0.0-1.0-46.0-0.0-5.0,0,0,3,,,,,,,,,,,,,,,,,,,,,,,,,,,,,,,,,,,,,,255.5,1.0,
239,,choice,,html-keyboard-response,239,159778,0.0-1.0-47.0-0.0-0.0,0,0,3,,272.0,,,51.0,45.0,45.0,1000.0,1500.0,0.0,1.0,0.0,80-80,,,baby carriage,fan,80.0,80.0,baby carriage8,fan7,60.0,80.0,peg_perego_uno_revi_black.jpg,250679_lg.jpg,/static/Category_learning/Stimuli/Experimental_stims/baby carriage/peg_perego_uno_revi_black.jpg,/static/Category_learning/Stimuli/Experimental_stims/fan/250679_lg.jpg,0.0,fan,baby carriage,80.0,80.0,fan7,baby carriage8,80.0,60.0,0.0,255.772,0.272,
240,,confirmation,,html-keyboard-response,240,161012,0.0-1.0-47.0-0.0-1.0-0.0,0,0,3,,,,,,45.0,,,,,,,,,,,,,,,,,,,,,,,,,,,,,,,,257.0,1.228,
241,,isi,,html-keyboard-response,241,161117,0.0-1.0-47.0-0.0-2.0,0,0,3,,,,,,,,,,,,,,,,,,,,,,,,,,,,,,,,,,,,,,258.0,1.0,
242,,feedback,,html-keyboard-response,242,162127,0.0-1.0-47.0-0.0-3.0-0.0,0,0,3,,,,,,45.0,,,,,,,,,,,,,,,,,,,,,,,,,,,,,,,,259.0,1.0,
243,,iti,,html-keyboard-response,243,162235,0.0-1.0-47.0-0.0-5.0,0,0,3,,,,,,,,,,,,,,,,,,,,,,,,,,,,,,,,,,,,,,260.5,1.5,
244,,choice,,html-keyboard-response,244,162283,0.0-1.0-48.0-0.0-0.0,0,0,3,,44.0,,,51.0,46.0,46.0,2000.0,1000.0,0.0,1.0,0.0,40-60,,0.0,seashell,telescope,40.0,60.0,seashell1,telescope12,40.0,40.0,Aseashe34.jpg,Junior Land and Sky Telescope.jpg,/static/Category_learning/Stimuli/Experimental_stims/seashell/Aseashe34.jpg,/static/Category_learning/Stimuli/Experimental_stims/telescope/Junior Land and Sky Telescope.jpg,0.0,telescope,seashell,60.0,40.0,telescope12,seashell1,40.0,40.0,0.0,260.544,0.044,
245,,confirmation,,html-keyboard-response,245,163746,0.0-1.0-48.0-0.0-1.0-0.0,0,0,3,,,,,,46.0,,,,,,,,,,,,,,,,,,,,,,,,,,,,,,,,262.0,1.456,
246,,isi,,html-keyboard-response,246,163852,0.0-1.0-48.0-0.0-2.0,0,0,3,,,,,,,,,,,,,,,,,,,,,,,,,,,,,,,,,,,,,,264.0,2.0,
247,,feedback,,html-keyboard-response,247,164858,0.0-1.0-48.0-0.0-3.0-0.0,0,0,3,,,,,,46.0,,,,,,,,,,,,,,,,,,,,,,,,,,,,,,,,265.0,1.0,
248,,iti,,html-keyboard-response,248,164964,0.0-1.0-48.0-0.0-5.0,0,0,3,,,,,,,,,,,,,,,,,,,,,,,,,,,,,,,,,,,,,,266.0,1.0,
249,,choice,,html-keyboard-response,249,165234,0.0-1.0-49.0-0.0-0.0,0,0,3,,266.0,,,51.0,47.0,47.0,2000.0,1000.0,0.0,1.0,0.0,20-40,,1.0,small table,hat,40.0,20.0,small table2,hat7,60.0,20.0,Atable126.jpg,ASTRHATFL.jpg,/static/Category_learning/Stimuli/Experimental_stims/small table/Atable126.jpg,/static/Category_learning/Stimuli/Experimental_stims/hat/ASTRHATFL.jpg,0.0,hat,small table,20.0,40.0,hat7,small table2,20.0,60.0,0.0,266.266,0.266,
250,,confirmation,,html-keyboard-response,250,166476,0.0-1.0-49.0-0.0-1.0-0.0,0,0,3,,,,,,47.0,,,,,,,,,,,,,,,,,,,,,,,,,,,,,,,,267.5,1.234,
251,,isi,,html-keyboard-response,251,166584,0.0-1.0-49.0-0.0-2.0,0,0,3,,,,,,,,,,,,,,,,,,,,,,,,,,,,,,,,,,,,,,269.5,2.0,
252,,feedback,,html-keyboard-response,252,167589,0.0-1.0-49.0-0.0-3.0-0.0,0,0,3,,,,,,47.0,,,,,,,,,,,,,,,,,,,,,,,,,,,,,,,,270.5,1.0,
253,,iti,,html-keyboard-response,253,167696,0.0-1.0-49.0-0.0-5.0,0,0,3,,,,,,,,,,,,,,,,,,,,,,,,,,,,,,,,,,,,,,271.5,1.0,
254,,choice,,html-keyboard-response,254,167969,0.0-1.0-50.0-0.0-0.0,0,0,3,,269.0,,,51.0,48.0,48.0,1000.0,1500.0,0.0,1.0,0.0,20-60,,1.0,tape,hammer,60.0,20.0,tape2,hammer10,40.0,40.0,Tape_Dispenser.jpg,Tabla Hammer.JPG,/static/Category_learning/Stimuli/Experimental_stims/tape/Tape_Dispenser.jpg,/static/Category_learning/Stimuli/Experimental_stims/hammer/Tabla Hammer.JPG,0.0,hammer,tape,20.0,60.0,hammer10,tape2,40.0,40.0,0.0,271.769,0.269,
255,,confirmation,,html-keyboard-response,255,169206,0.0-1.0-50.0-0.0-1.0-0.0,0,0,3,,,,,,48.0,,,,,,,,,,,,,,,,,,,,,,,,,,,,,,,,273.0,1.231,
256,,isi,,html-keyboard-response,256,169314,0.0-1.0-50.0-0.0-2.0,0,0,3,,,,,,,,,,,,,,,,,,,,,,,,,,,,,,,,,,,,,,274.0,1.0,
257,,feedback,,html-keyboard-response,257,170322,0.0-1.0-50.0-0.0-3.0-0.0,0,0,3,,,,,,48.0,,,,,,,,,,,,,,,,,,,,,,,,,,,,,,,,275.0,1.0,
258,,iti,,html-keyboard-response,258,170428,0.0-1.0-50.0-0.0-5.0,0,0,3,,,,,,,,,,,,,,,,,,,,,,,,,,,,,,,,,,,,,,276.5,1.5,
259,,choice,,html-keyboard-response,259,170618,0.0-1.0-51.0-0.0-0.0,0,0,3,,186.0,,,51.0,49.0,49.0,1500.0,1500.0,0.0,1.0,1.0,60-60,1.0,,telescope,telescope,60.0,60.0,telescope6,telescope12,80.0,40.0,LO-telescope-89769.jpg,Junior Land and Sky Telescope.jpg,/static/Category_learning/Stimuli/Experimental_stims/telescope/LO-telescope-89769.jpg,/static/Category_learning/Stimuli/Experimental_stims/telescope/Junior Land and Sky Telescope.jpg,0.0,telescope,telescope,60.0,60.0,telescope12,telescope6,40.0,80.0,0.0,276.686,0.186,
260,,confirmation,,html-keyboard-response,260,171938,0.0-1.0-51.0-0.0-1.0-0.0,0,0,3,,,,,,49.0,,,,,,,,,,,,,,,,,,,,,,,,,,,,,,,,278.0,1.314,
261,,isi,,html-keyboard-response,261,172042,0.0-1.0-51.0-0.0-2.0,0,0,3,,,,,,,,,,,,,,,,,,,,,,,,,,,,,,,,,,,,,,279.5,1.5,
262,,feedback,,html-keyboard-response,262,173047,0.0-1.0-51.0-0.0-3.0-0.0,0,0,3,,,,,,49.0,,,,,,,,,,,,,,,,,,,,,,,,,,,,,,,,280.5,1.0,
263,,iti,,html-keyboard-response,263,173156,0.0-1.0-51.0-0.0-5.0,0,0,3,,,,,,,,,,,,,,,,,,,,,,,,,,,,,,,,,,,,,,282.0,1.5,
264,,choice,,html-keyboard-response,264,173556,0.0-1.0-52.0-0.0-0.0,0,0,3,,396.0,,,51.0,50.0,50.0,2000.0,1000.0,0.0,1.0,1.0,20-20,1.0,,hammer,hammer,20.0,20.0,hammer10,hammer11,40.0,0.0,Tabla Hammer.JPG,8oz-hammer-copy.jpg,/static/Category_learning/Stimuli/Experimental_stims/hammer/Tabla Hammer.JPG,/static/Category_learning/Stimuli/Experimental_stims/hammer/8oz-hammer-copy.jpg,0.0,hammer,hammer,20.0,20.0,hammer11,hammer10,0.0,40.0,0.0,282.396,0.396,
265,,confirmation,,html-keyboard-response,265,174666,0.0-1.0-52.0-0.0-1.0-0.0,0,0,3,,,,,,50.0,,,,,,,,,,,,,,,,,,,,,,,,,,,,,,,,283.5,1.104,
266,,isi,,html-keyboard-response,266,174771,0.0-1.0-52.0-0.0-2.0,0,0,3,,,,,,,,,,,,,,,,,,,,,,,,,,,,,,,,,,,,,,285.5,2.0,
267,,feedback,,html-keyboard-response,267,175778,0.0-1.0-52.0-0.0-3.0-0.0,0,0,3,,,,,,50.0,,,,,,,,,,,,,,,,,,,,,,,,,,,,,,,,286.5,1.0,
268,,iti,,html-keyboard-response,268,175882,0.0-1.0-52.0-0.0-5.0,0,0,3,,,,,,,,,,,,,,,,,,,,,,,,,,,,,,,,,,,,,,287.5,1.0,
269,,choice,,html-keyboard-response,269,176110,0.0-1.0-53.0-0.0-0.0,0,0,3,,224.0,,,51.0,51.0,51.0,3500.0,1500.0,0.0,1.0,0.0,20-80,,1.0,bench,frame,80.0,20.0,bench6,frame7,60.0,20.0,26370121.thl.jpg,AFRAME152.jpg,/static/Category_learning/Stimuli/Experimental_stims/bench/26370121.thl.jpg,/static/Category_learning/Stimuli/Experimental_stims/frame/AFRAME152.jpg,0.0,frame,bench,20.0,80.0,frame7,bench6,20.0,60.0,0.0,287.724,0.224,
270,,confirmation,,html-keyboard-response,270,177390,0.0-1.0-53.0-0.0-1.0-0.0,0,0,3,,,,,,51.0,,,,,,,,,,,,,,,,,,,,,,,,,,,,,,,,289.0,1.276,
271,,isi,,html-keyboard-response,271,177499,0.0-1.0-53.0-0.0-2.0,0,0,3,,,,,,,,,,,,,,,,,,,,,,,,,,,,,,,,,,,,,,292.5,3.5,
272,,feedback,,html-keyboard-response,272,178508,0.0-1.0-53.0-0.0-3.0-0.0,0,0,3,,,,,,51.0,,,,,,,,,,,,,,,,,,,,,,,,,,,,,,,,293.5,1.0,
273,,iti,,html-keyboard-response,273,178616,0.0-1.0-53.0-0.0-5.0,0,0,3,,,,,,,,,,,,,,,,,,,,,,,,,,,,,,,,,,,,,,295.0,1.5,
274,,choice,,html-keyboard-response,274,178970,0.0-1.0-54.0-0.0-0.0,0,0,3,,351.0,,,51.0,52.0,52.0,1000.0,1000.0,0.0,1.0,0.0,20-80,,1.0,bench,motorcycle,80.0,20.0,bench5,motorcycle7,60.0,20.0,APARKBEN8.jpg,MotoSmall.jpg,/static/Category_learning/Stimuli/Experimental_stims/bench/APARKBEN8.jpg,/static/Category_learning/Stimuli/Experimental_stims/motorcycle/MotoSmall.jpg,0.0,motorcycle,bench,20.0,80.0,motorcycle7,bench5,20.0,60.0,0.0,295.351,0.351,
275,,confirmation,,html-keyboard-response,275,180126,0.0-1.0-54.0-0.0-1.0-0.0,0,0,3,,,,,,52.0,,,,,,,,,,,,,,,,,,,,,,,,,,,,,,,,296.5,1.149,
276,,isi,,html-keyboard-response,276,180233,0.0-1.0-54.0-0.0-2.0,0,0,3,,,,,,,,,,,,,,,,,,,,,,,,,,,,,,,,,,,,,,297.5,1.0,
277,,feedback,,html-keyboard-response,277,181241,0.0-1.0-54.0-0.0-3.0-0.0,0,0,3,,,,,,52.0,,,,,,,,,,,,,,,,,,,,,,,,,,,,,,,,298.5,1.0,
278,,iti,,html-keyboard-response,278,181348,0.0-1.0-54.0-0.0-5.0,0,0,3,,,,,,,,,,,,,,,,,,,,,,,,,,,,,,,,,,,,,,299.5,1.0,
279,,choice,,html-keyboard-response,279,181549,0.0-1.0-55.0-0.0-0.0,0,0,3,,197.0,,,51.0,53.0,53.0,2000.0,2000.0,0.0,1.0,0.0,60-60,,,stool,yarn,60.0,60.0,stool9,yarn9,60.0,40.0,ASTOOL7.jpg,Aballofyarn26.jpg,/static/Category_learning/Stimuli/Experimental_stims/stool/ASTOOL7.jpg,/static/Category_learning/Stimuli/Experimental_stims/yarn/Aballofyarn26.jpg,0.0,yarn,stool,60.0,60.0,yarn9,stool9,40.0,60.0,0.0,299.697,0.197,
280,,confirmation,,html-keyboard-response,280,182858,0.0-1.0-55.0-0.0-1.0-0.0,0,0,3,,,,,,53.0,,,,,,,,,,,,,,,,,,,,,,,,,,,,,,,,301.0,1.303,
281,,isi,,html-keyboard-response,281,182961,0.0-1.0-55.0-0.0-2.0,0,0,3,,,,,,,,,,,,,,,,,,,,,,,,,,,,,,,,,,,,,,303.0,2.0,
282,,feedback,,html-keyboard-response,282,183968,0.0-1.0-55.0-0.0-3.0-0.0,0,0,3,,,,,,53.0,,,,,,,,,,,,,,,,,,,,,,,,,,,,,,,,304.0,1.0,
283,,iti,,html-keyboard-response,283,184074,0.0-1.0-55.0-0.0-5.0,0,0,3,,,,,,,,,,,,,,,,,,,,,,,,,,,,,,,,,,,,,,306.0,2.0,
284,,choice,,html-keyboard-response,284,184663,0.0-1.0-56.0-0.0-0.0,0,0,3,,584.0,,,51.0,54.0,54.0,1000.0,1000.0,0.0,1.0,0.0,60-80,,0.0,stool,bench,60.0,80.0,stool7,bench7,60.0,100.0,ASTOOL25.jpg,ACONBENCH.jpg,/static/Category_learning/Stimuli/Experimental_stims/stool/ASTOOL25.jpg,/static/Category_learning/Stimuli/Experimental_stims/bench/ACONBENCH.jpg,0.0,bench,stool,80.0,60.0,bench7,stool7,100.0,60.0,0.0,306.584,0.584,
285,,confirmation,,html-keyboard-response,285,185584,0.0-1.0-56.0-0.0-1.0-0.0,0,0,3,,,,,,54.0,,,,,,,,,,,,,,,,,,,,,,,,,,,,,,,,307.5,0.916,
286,,isi,,html-keyboard-response,286,185689,0.0-1.0-56.0-0.0-2.0,0,0,3,,,,,,,,,,,,,,,,,,,,,,,,,,,,,,,,,,,,,,308.5,1.0,
287,,feedback,,html-keyboard-response,287,186694,0.0-1.0-56.0-0.0-3.0-0.0,0,0,3,,,,,,54.0,,,,,,,,,,,,,,,,,,,,,,,,,,,,,,,,309.5,1.0,
288,,iti,,html-keyboard-response,288,186803,0.0-1.0-56.0-0.0-5.0,0,0,3,,,,,,,,,,,,,,,,,,,,,,,,,,,,,,,,,,,,,,310.5,1.0,
289,,choice,,html-keyboard-response,289,187502,0.0-1.0-57.0-0.0-0.0,0,0,3,,696.0,,,51.0,55.0,55.0,1000.0,1000.0,0.0,1.0,1.0,60-60,1.0,,yarn,yarn,60.0,60.0,yarn8,yarn9,40.0,40.0,smonlineyarn-285x250.jpg,Aballofyarn26.jpg,/static/Category_learning/Stimuli/Experimental_stims/yarn/smonlineyarn-285x250.jpg,/static/Category_learning/Stimuli/Experimental_stims/yarn/Aballofyarn26.jpg,0.0,yarn,yarn,60.0,60.0,yarn9,yarn8,40.0,40.0,0.0,311.196,0.696,
290,,confirmation,,html-keyboard-response,290,188311,0.0-1.0-57.0-0.0-1.0-0.0,0,0,3,,,,,,55.0,,,,,,,,,,,,,,,,,,,,,,,,,,,,,,,,312.0,0.804,
291,,isi,,html-keyboard-response,291,188414,0.0-1.0-57.0-0.0-2.0,0,0,3,,,,,,,,,,,,,,,,,,,,,,,,,,,,,,,,,,,,,,313.0,1.0,
292,,feedback,,html-keyboard-response,292,189423,0.0-1.0-57.0-0.0-3.0-0.0,0,0,3,,,,,,55.0,,,,,,,,,,,,,,,,,,,,,,,,,,,,,,,,314.0,1.0,
293,,iti,,html-keyboard-response,293,189532,0.0-1.0-57.0-0.0-5.0,0,0,3,,,,,,,,,,,,,,,,,,,,,,,,,,,,,,,,,,,,,,315.0,1.0,
294,,choice,,html-keyboard-response,294,189913,0.0-1.0-58.0-0.0-0.0,0,0,3,,377.0,,,51.0,56.0,56.0,3000.0,1000.0,0.0,1.0,0.0,40-60,,1.0,train,poker card,60.0,40.0,train11,poker card6,80.0,40.0,train1.jpg,22864212.thl.jpg,/static/Category_learning/Stimuli/Experimental_stims/train/train1.jpg,/static/Category_learning/Stimuli/Experimental_stims/poker card/22864212.thl.jpg,0.0,poker card,train,40.0,60.0,poker card6,train11,40.0,80.0,0.0,315.377,0.377,
295,,confirmation,,html-keyboard-response,295,191041,0.0-1.0-58.0-0.0-1.0-0.0,0,0,3,,,,,,56.0,,,,,,,,,,,,,,,,,,,,,,,,,,,,,,,,316.5,1.123,
296,,isi,,html-keyboard-response,296,191145,0.0-1.0-58.0-0.0-2.0,0,0,3,,,,,,,,,,,,,,,,,,,,,,,,,,,,,,,,,,,,,,319.5,3.0,
297,,feedback,,html-keyboard-response,297,192154,0.0-1.0-58.0-0.0-3.0-0.0,0,0,3,,,,,,56.0,,,,,,,,,,,,,,,,,,,,,,,,,,,,,,,,320.5,1.0,
298,,iti,,html-keyboard-response,298,192261,0.0-1.0-58.0-0.0-5.0,0,0,3,,,,,,,,,,,,,,,,,,,,,,,,,,,,,,,,,,,,,,321.5,1.0,
299,,choice,,html-keyboard-response,299,192452,0.0-1.0-59.0-0.0-0.0,0,0,3,,187.0,,,51.0,57.0,57.0,1000.0,1500.0,0.0,1.0,0.0,80-80,,,door knob,baby carriage,80.0,80.0,door knob7,baby carriage9,60.0,100.0,doorknob2.jpg,Antique baby Carriage 7.jpg,/static/Category_learning/Stimuli/Experimental_stims/door knob/doorknob2.jpg,/static/Category_learning/Stimuli/Experimental_stims/baby carriage/Antique baby Carriage 7.jpg,0.0,baby carriage,door knob,80.0,80.0,baby carriage9,door knob7,100.0,60.0,0.0,321.687,0.187,
300,,confirmation,,html-keyboard-response,300,193775,0.0-1.0-59.0-0.0-1.0-0.0,0,0,3,,,,,,57.0,,,,,,,,,,,,,,,,,,,,,,,,,,,,,,,,323.0,1.313,
301,,isi,,html-keyboard-response,301,193879,0.0-1.0-59.0-0.0-2.0,0,0,3,,,,,,,,,,,,,,,,,,,,,,,,,,,,,,,,,,,,,,324.0,1.0,
302,,feedback,,html-keyboard-response,302,194885,0.0-1.0-59.0-0.0-3.0-0.0,0,0,3,,,,,,57.0,,,,,,,,,,,,,,,,,,,,,,,,,,,,,,,,325.0,1.0,
303,,iti,,html-keyboard-response,303,194990,0.0-1.0-59.0-0.0-5.0,0,0,3,,,,,,,,,,,,,,,,,,,,,,,,,,,,,,,,,,,,,,326.5,1.5,
304,,choice,,html-keyboard-response,304,195125,0.0-1.0-60.0-0.0-0.0,0,0,3,,130.0,,,51.0,58.0,58.0,1500.0,1000.0,0.0,1.0,1.0,80-80,0.0,,fan,door knob,80.0,80.0,fan7,door knob13,80.0,100.0,250679_lg.jpg,500_CLAWALBC.jpg,/static/Category_learning/Stimuli/Experimental_stims/fan/250679_lg.jpg,/static/Category_learning/Stimuli/Experimental_stims/door knob/500_CLAWALBC.jpg,0.0,door knob,fan,80.0,80.0,door knob13,fan7,100.0,80.0,0.0,326.63,0.13,
305,,confirmation,,html-keyboard-response,305,196504,0.0-1.0-60.0-0.0-1.0-0.0,0,0,3,,,,,,58.0,,,,,,,,,,,,,,,,,,,,,,,,,,,,,,,,328.0,1.37,
306,,isi,,html-keyboard-response,306,196608,0.0-1.0-60.0-0.0-2.0,0,0,3,,,,,,,,,,,,,,,,,,,,,,,,,,,,,,,,,,,,,,329.5,1.5,
307,,feedback,,html-keyboard-response,307,197613,0.0-1.0-60.0-0.0-3.0-0.0,0,0,3,,,,,,58.0,,,,,,,,,,,,,,,,,,,,,,,,,,,,,,,,330.5,1.0,
308,,iti,,html-keyboard-response,308,197720,0.0-1.0-60.0-0.0-5.0,0,0,3,,,,,,,,,,,,,,,,,,,,,,,,,,,,,,,,,,,,,,331.5,1.0,
309,,choice,,html-keyboard-response,309,198057,0.0-1.0-61.0-0.0-0.0,0,0,3,,334.0,,,51.0,59.0,59.0,3500.0,1000.0,0.0,1.0,0.0,60-80,,0.0,watch,bench,60.0,80.0,watch9,bench10,40.0,100.0,mens-diamond-watches-euro-48733-ab.jpg,APARKBE16.jpg,/static/Category_learning/Stimuli/Experimental_stims/watch/mens-diamond-watches-euro-48733-ab.jpg,/static/Category_learning/Stimuli/Experimental_stims/bench/APARKBE16.jpg,0.0,bench,watch,80.0,60.0,bench10,watch9,100.0,40.0,0.0,331.834,0.334,
310,,confirmation,,html-keyboard-response,310,199232,0.0-1.0-61.0-0.0-1.0-0.0,0,0,3,,,,,,59.0,,,,,,,,,,,,,,,,,,,,,,,,,,,,,,,,333.0,1.166,
311,,isi,,html-keyboard-response,311,199341,0.0-1.0-61.0-0.0-2.0,0,0,3,,,,,,,,,,,,,,,,,,,,,,,,,,,,,,,,,,,,,,336.5,3.5,
312,,feedback,,html-keyboard-response,312,200348,0.0-1.0-61.0-0.0-3.0-0.0,0,0,3,,,,,,59.0,,,,,,,,,,,,,,,,,,,,,,,,,,,,,,,,337.5,1.0,
313,,iti,,html-keyboard-response,313,200455,0.0-1.0-61.0-0.0-5.0,0,0,3,,,,,,,,,,,,,,,,,,,,,,,,,,,,,,,,,,,,,,338.5,1.0,
314,,choice,,html-keyboard-response,314,200463,0.0-1.0-62.0-0.0-0.0,0,0,3,,3.0,,,51.0,60.0,60.0,1500.0,1000.0,0.0,1.0,0.0,40-40,,,pen,necklace,40.0,40.0,pen8,necklace12,60.0,40.0,1383_1749_popup copy.jpg,necklascenew07.jpg,/static/Category_learning/Stimuli/Experimental_stims/pen/1383_1749_popup copy.jpg,/static/Category_learning/Stimuli/Experimental_stims/necklace/necklascenew07.jpg,0.0,necklace,pen,40.0,40.0,necklace12,pen8,40.0,60.0,0.0,338.503,0.003,
315,,confirmation,,html-keyboard-response,315,201968,0.0-1.0-62.0-0.0-1.0-0.0,0,0,3,,,,,,60.0,,,,,,,,,,,,,,,,,,,,,,,,,,,,,,,,340.0,1.497,
316,,isi,,html-keyboard-response,316,202072,0.0-1.0-62.0-0.0-2.0,0,0,3,,,,,,,,,,,,,,,,,,,,,,,,,,,,,,,,,,,,,,341.5,1.5,
317,,feedback,,html-keyboard-response,317,203076,0.0-1.0-62.0-0.0-3.0-0.0,0,0,3,,,,,,60.0,,,,,,,,,,,,,,,,,,,,,,,,,,,,,,,,342.5,1.0,
318,,iti,,html-keyboard-response,318,203180,0.0-1.0-62.0-0.0-5.0,0,0,3,,,,,,,,,,,,,,,,,,,,,,,,,,,,,,,,,,,,,,343.5,1.0,
319,,choice,,html-keyboard-response,319,203843,0.0-1.0-63.0-0.0-0.0,0,0,3,,659.0,,,51.0,61.0,61.0,1000.0,1000.0,0.0,1.0,0.0,20-60,,1.0,train,hammer,60.0,20.0,train15,hammer14,40.0,40.0,master-TD006.jpg,hammer.jpg,/static/Category_learning/Stimuli/Experimental_stims/train/master-TD006.jpg,/static/Category_learning/Stimuli/Experimental_stims/hammer/hammer.jpg,0.0,hammer,train,20.0,60.0,hammer14,train15,40.0,40.0,0.0,344.159,0.659,
320,,confirmation,,html-keyboard-response,320,204692,0.0-1.0-63.0-0.0-1.0-0.0,0,0,3,,,,,,61.0,,,,,,,,,,,,,,,,,,,,,,,,,,,,,,,,345.0,0.841,
321,,isi,,html-keyboard-response,321,204798,0.0-1.0-63.0-0.0-2.0,0,0,3,,,,,,,,,,,,,,,,,,,,,,,,,,,,,,,,,,,,,,346.0,1.0,
322,,feedback,,html-keyboard-response,322,205804,0.0-1.0-63.0-0.0-3.0-0.0,0,0,3,,,,,,61.0,,,,,,,,,,,,,,,,,,,,,,,,,,,,,,,,347.0,1.0,
323,,iti,,html-keyboard-response,323,205909,0.0-1.0-63.0-0.0-5.0,0,0,3,,,,,,,,,,,,,,,,,,,,,,,,,,,,,,,,,,,,,,348.0,1.0,
324,,choice,,html-keyboard-response,324,205966,0.0-1.0-64.0-0.0-0.0,0,0,3,,52.0,,,51.0,62.0,62.0,1000.0,1000.0,0.0,1.0,0.0,20-80,,1.0,dresser,key chain,80.0,20.0,dresser13,key chain7,80.0,40.0,ADRESSE70.jpg,keychain-gentoo-linux.jpg,/static/Category_learning/Stimuli/Experimental_stims/dresser/ADRESSE70.jpg,/static/Category_learning/Stimuli/Experimental_stims/key chain/keychain-gentoo-linux.jpg,0.0,key chain,dresser,20.0,80.0,key chain7,dresser13,40.0,80.0,0.0,348.052,0.052,
325,,confirmation,,html-keyboard-response,325,207422,0.0-1.0-64.0-0.0-1.0-0.0,0,0,3,,,,,,62.0,,,,,,,,,,,,,,,,,,,,,,,,,,,,,,,,349.5,1.448,
326,,isi,,html-keyboard-response,326,207530,0.0-1.0-64.0-0.0-2.0,0,0,3,,,,,,,,,,,,,,,,,,,,,,,,,,,,,,,,,,,,,,350.5,1.0,
327,,feedback,,html-keyboard-response,327,208535,0.0-1.0-64.0-0.0-3.0-0.0,0,0,3,,,,,,62.0,,,,,,,,,,,,,,,,,,,,,,,,,,,,,,,,351.5,1.0,
328,,iti,,html-keyboard-response,328,208641,0.0-1.0-64.0-0.0-5.0,0,0,3,,,,,,,,,,,,,,,,,,,,,,,,,,,,,,,,,,,,,,352.5,1.0,
329,,block_over,,html-keyboard-response,329,217149,0.0-1.0-64.0-0.0-7.0-0.0,0,0,3,,8481.0,,,50.0,62.0,,,,,,,,,,,,,,,,,,,,,,,,,,,,,,,,,,
330,,start_run,,html-keyboard-response,330,218297,0.0-1.0-64.0-0.0-7.0-1.0,0,0,3,,1145.0,,,84.0,,,,,,,,,,,,,,,,,,,,,,,,,,,,,,,,,,,
331,,choice,,html-keyboard-response,331,218786,0.0-1.0-65.0-0.0-0.0,0,0,3,,484.0,,,50.0,63.0,65.0,3500.0,1000.0,0.0,2.0,0.0,20-60,,1.0,telescope,key chain,60.0,20.0,telescope4,key chain14,60.0,0.0,TELESCOPE_BLACK_GOOD_SMALL.jpg,Jif Keychain 285.jpg,/static/Category_learning/Stimuli/Experimental_stims/telescope/TELESCOPE_BLACK_GOOD_SMALL.jpg,/static/Category_learning/Stimuli/Experimental_stims/key chain/Jif Keychain 285.jpg,1.0,telescope,key chain,60.0,20.0,telescope4,key chain14,60.0,0.0,0.0,0.484,0.484,
332,,confirmation,,html-keyboard-response,332,219809,0.0-1.0-65.0-0.0-1.0-0.0,0,0,3,,,,,,63.0,,,,,,,,,,,,,,,,,,,,,,,,,,,,,,,,1.5,1.016,
333,,isi,,html-keyboard-response,333,219913,0.0-1.0-65.0-0.0-2.0,0,0,3,,,,,,,,,,,,,,,,,,,,,,,,,,,,,,,,,,,,,,5.0,3.5,
334,,feedback,,html-keyboard-response,334,220920,0.0-1.0-65.0-0.0-3.0-0.0,0,0,3,,,,,,63.0,,,,,,,,,,,,,,,,,,,,,,,,,,,,,,,,6.0,1.0,
335,,iti,,html-keyboard-response,335,221028,0.0-1.0-65.0-0.0-5.0,0,0,3,,,,,,,,,,,,,,,,,,,,,,,,,,,,,,,,,,,,,,7.0,1.0,
336,,choice,,html-keyboard-response,336,221626,0.0-1.0-66.0-0.0-0.0,0,0,3,,595.0,,,50.0,64.0,66.0,2000.0,1000.0,0.0,2.0,0.0,20-60,,0.0,key chain,yarn,20.0,60.0,key chain3,yarn2,20.0,80.0,Keychain_Voice_Recorder.jpg,Aballofyarn66.jpg,/static/Category_learning/Stimuli/Experimental_stims/key chain/Keychain_Voice_Recorder.jpg,/static/Category_learning/Stimuli/Experimental_stims/yarn/Aballofyarn66.jpg,1.0,key chain,yarn,20.0,60.0,key chain3,yarn2,20.0,80.0,0.0,7.595,0.595,
337,,confirmation,,html-keyboard-response,337,222540,0.0-1.0-66.0-0.0-1.0-0.0,0,0,3,,,,,,64.0,,,,,,,,,,,,,,,,,,,,,,,,,,,,,,,,8.5,0.905,
338,,isi,,html-keyboard-response,338,222648,0.0-1.0-66.0-0.0-2.0,0,0,3,,,,,,,,,,,,,,,,,,,,,,,,,,,,,,,,,,,,,,10.5,2.0,
339,,feedback,,html-keyboard-response,339,223657,0.0-1.0-66.0-0.0-3.0-0.0,0,0,3,,,,,,64.0,,,,,,,,,,,,,,,,,,,,,,,,,,,,,,,,11.5,1.0,
340,,iti,,html-keyboard-response,340,223765,0.0-1.0-66.0-0.0-5.0,0,0,3,,,,,,,,,,,,,,,,,,,,,,,,,,,,,,,,,,,,,,12.5,1.0,
341,,choice,,html-keyboard-response,341,223894,0.0-1.0-67.0-0.0-0.0,0,0,3,,125.0,,,50.0,65.0,67.0,1000.0,1000.0,0.0,2.0,0.0,40-60,,0.0,small table,watch,40.0,60.0,small table15,watch2,60.0,60.0,ATABLE20.jpg,AL0004-03E_MED.jpg,/static/Category_learning/Stimuli/Experimental_stims/small table/ATABLE20.jpg,/static/Category_learning/Stimuli/Experimental_stims/watch/AL0004-03E_MED.jpg,1.0,small table,watch,40.0,60.0,small table15,watch2,60.0,60.0,0.0,12.625,0.125,
342,,confirmation,,html-keyboard-response,342,225273,0.0-1.0-67.0-0.0-1.0-0.0,0,0,3,,,,,,65.0,,,,,,,,,,,,,,,,,,,,,,,,,,,,,,,,14.0,1.375,
343,,isi,,html-keyboard-response,343,225379,0.0-1.0-67.0-0.0-2.0,0,0,3,,,,,,,,,,,,,,,,,,,,,,,,,,,,,,,,,,,,,,15.0,1.0,
344,,feedback,,html-keyboard-response,344,226387,0.0-1.0-67.0-0.0-3.0-0.0,0,0,3,,,,,,65.0,,,,,,,,,,,,,,,,,,,,,,,,,,,,,,,,16.0,1.0,
345,,iti,,html-keyboard-response,345,226495,0.0-1.0-67.0-0.0-5.0,0,0,3,,,,,,,,,,,,,,,,,,,,,,,,,,,,,,,,,,,,,,17.0,1.0,
346,,choice,,html-keyboard-response,346,228002,0.0-1.0-68.0-0.0-0.0,0,0,3,,,,,,66.0,68.0,3500.0,1000.0,0.0,2.0,0.0,40-60,,1.0,yarn,necklace,60.0,40.0,yarn11,necklace7,60.0,60.0,Aballofpinky2.jpg,Anecklace12.jpg,/static/Category_learning/Stimuli/Experimental_stims/yarn/Aballofpinky2.jpg,/static/Category_learning/Stimuli/Experimental_stims/necklace/Anecklace12.jpg,,,,,,,,,,1.0,18.5,1.5,
347,,isi,,html-keyboard-response,347,228109,0.0-1.0-68.0-0.0-2.0,0,0,3,,,,,,,,,,,,,,,,,,,,,,,,,,,,,,,,,,,,,,22.0,3.5,
348,,no_response,,html-keyboard-response,348,229114,0.0-1.0-68.0-0.0-4.0-0.0,0,0,3,,,,,,,,,,,,,,,,,,,,,,,,,,,,,,,,,,,,,,23.0,1.0,
349,,iti,,html-keyboard-response,349,229231,0.0-1.0-68.0-0.0-5.0,0,0,3,,,,,,,,,,,,,,,,,,,,,,,,,,,,,,,,,,,,,,24.0,1.0,
350,,choice,,html-keyboard-response,350,230741,0.0-1.0-68.0-0.1-0.1,0,0,3,,,,,,66.0,68.0,3500.0,1000.0,0.0,2.0,0.0,40-60,,1.0,yarn,necklace,60.0,40.0,yarn11,necklace7,60.0,60.0,Aballofpinky2.jpg,Anecklace12.jpg,/static/Category_learning/Stimuli/Experimental_stims/yarn/Aballofpinky2.jpg,/static/Category_learning/Stimuli/Experimental_stims/necklace/Anecklace12.jpg,,,,,,,,,,1.0,25.5,1.5,
351,,isi,,html-keyboard-response,351,230847,0.0-1.0-68.0-0.1-2.1,0,0,3,,,,,,,,,,,,,,,,,,,,,,,,,,,,,,,,,,,,,,26.5,1.0,
352,,no_response,,html-keyboard-response,352,231854,0.0-1.0-68.0-0.1-4.1-0.1,0,0,3,,,,,,,,,,,,,,,,,,,,,,,,,,,,,,,,,,,,,,27.5,1.0,
353,,iti,,html-keyboard-response,353,231979,0.0-1.0-68.0-0.1-5.1,0,0,3,,,,,,,,,,,,,,,,,,,,,,,,,,,,,,,,,,,,,,28.5,1.0,
354,,choice,,html-keyboard-response,354,233489,0.0-1.0-68.0-0.2-0.2,0,0,3,,,,,,66.0,68.0,3500.0,1000.0,0.0,2.0,0.0,40-60,,1.0,yarn,necklace,60.0,40.0,yarn11,necklace7,60.0,60.0,Aballofpinky2.jpg,Anecklace12.jpg,/static/Category_learning/Stimuli/Experimental_stims/yarn/Aballofpinky2.jpg,/static/Category_learning/Stimuli/Experimental_stims/necklace/Anecklace12.jpg,,,,,,,,,,1.0,30.0,1.5,
355,,isi,,html-keyboard-response,355,233593,0.0-1.0-68.0-0.2-2.2,0,0,3,,,,,,,,,,,,,,,,,,,,,,,,,,,,,,,,,,,,,,31.0,1.0,
356,,no_response,,html-keyboard-response,356,234600,0.0-1.0-68.0-0.2-4.2-0.2,0,0,3,,,,,,,,,,,,,,,,,,,,,,,,,,,,,,,,,,,,,,32.0,1.0,
357,,iti,,html-keyboard-response,357,234732,0.0-1.0-68.0-0.2-5.2,0,0,3,,,,,,,,,,,,,,,,,,,,,,,,,,,,,,,,,,,,,,33.0,1.0,
358,,choice,,html-keyboard-response,358,236237,0.0-1.0-68.0-0.3-0.3,0,0,3,,,,,,66.0,68.0,3500.0,1000.0,0.0,2.0,0.0,40-60,,1.0,yarn,necklace,60.0,40.0,yarn11,necklace7,60.0,60.0,Aballofpinky2.jpg,Anecklace12.jpg,/static/Category_learning/Stimuli/Experimental_stims/yarn/Aballofpinky2.jpg,/static/Category_learning/Stimuli/Experimental_stims/necklace/Anecklace12.jpg,,,,,,,,,,1.0,34.5,1.5,
359,,isi,,html-keyboard-response,359,236342,0.0-1.0-68.0-0.3-2.3,0,0,3,,,,,,,,,,,,,,,,,,,,,,,,,,,,,,,,,,,,,,37.5,3.0,
360,,no_response,,html-keyboard-response,360,237349,0.0-1.0-68.0-0.3-4.3-0.3,0,0,3,,,,,,,,,,,,,,,,,,,,,,,,,,,,,,,,,,,,,,38.5,1.0,
361,,iti,,html-keyboard-response,361,237478,0.0-1.0-68.0-0.3-5.3,0,0,3,,,,,,,,,,,,,,,,,,,,,,,,,,,,,,,,,,,,,,40.0,1.5,
362,,choice,,html-keyboard-response,362,238986,0.0-1.0-68.0-0.4-0.4,0,0,3,,,,,,66.0,68.0,3500.0,1000.0,0.0,2.0,0.0,40-60,,1.0,yarn,necklace,60.0,40.0,yarn11,necklace7,60.0,60.0,Aballofpinky2.jpg,Anecklace12.jpg,/static/Category_learning/Stimuli/Experimental_stims/yarn/Aballofpinky2.jpg,/static/Category_learning/Stimuli/Experimental_stims/necklace/Anecklace12.jpg,,,,,,,,,,1.0,41.5,1.5,
363,,isi,,html-keyboard-response,363,239094,0.0-1.0-68.0-0.4-2.4,0,0,3,,,,,,,,,,,,,,,,,,,,,,,,,,,,,,,,,,,,,,43.5,2.0,
364,,no_response,,html-keyboard-response,364,240100,0.0-1.0-68.0-0.4-4.4-0.4,0,0,3,,,,,,,,,,,,,,,,,,,,,,,,,,,,,,,,,,,,,,44.5,1.0,
365,,iti,,html-keyboard-response,365,240226,0.0-1.0-68.0-0.4-5.4,0,0,3,,,,,,,,,,,,,,,,,,,,,,,,,,,,,,,,,,,,,,45.5,1.0,
366,,choice,,html-keyboard-response,366,241479,0.0-1.0-68.0-0.5-0.5,0,0,3,,1249.0,,,50.0,66.0,68.0,3500.0,1000.0,0.0,2.0,0.0,40-60,,1.0,yarn,necklace,60.0,40.0,yarn11,necklace7,60.0,60.0,Aballofpinky2.jpg,Anecklace12.jpg,/static/Category_learning/Stimuli/Experimental_stims/yarn/Aballofpinky2.jpg,/static/Category_learning/Stimuli/Experimental_stims/necklace/Anecklace12.jpg,1.0,yarn,necklace,60.0,40.0,yarn11,necklace7,60.0,60.0,0.0,46.749,1.249,
367,,confirmation,,html-keyboard-response,367,241739,0.0-1.0-68.0-0.5-1.5-0.5,0,0,3,,,,,,66.0,,,,,,,,,,,,,,,,,,,,,,,,,,,,,,,,47.0,0.251,
368,,isi,,html-keyboard-response,368,241843,0.0-1.0-68.0-0.5-2.5,0,0,3,,,,,,,,,,,,,,,,,,,,,,,,,,,,,,,,,,,,,,50.0,3.0,
369,,feedback,,html-keyboard-response,369,242850,0.0-1.0-68.0-0.5-3.5-0.5,0,0,3,,,,,,66.0,,,,,,,,,,,,,,,,,,,,,,,,,,,,,,,,51.0,1.0,
370,,iti,,html-keyboard-response,370,242953,0.0-1.0-68.0-0.5-5.5,0,0,3,,,,,,,,,,,,,,,,,,,,,,,,,,,,,,,,,,,,,,52.0,1.0,
371,,choice,,html-keyboard-response,371,243733,0.0-1.0-69.0-0.0-0.0,0,0,3,,775.0,,,50.0,67.0,69.0,1500.0,1000.0,0.0,2.0,0.0,20-80,,1.0,bongo,hat,80.0,20.0,bongo10,hat3,60.0,0.0,22945915.thl.jpg,Astrawhat49.jpg,/static/Category_learning/Stimuli/Experimental_stims/bongo/22945915.thl.jpg,/static/Category_learning/Stimuli/Experimental_stims/hat/Astrawhat49.jpg,1.0,bongo,hat,80.0,20.0,bongo10,hat3,60.0,0.0,0.0,52.775,0.775,
372,,confirmation,,html-keyboard-response,372,244465,0.0-1.0-69.0-0.0-1.0-0.0,0,0,3,,,,,,67.0,,,,,,,,,,,,,,,,,,,,,,,,,,,,,,,,53.5,0.725,
373,,isi,,html-keyboard-response,373,244573,0.0-1.0-69.0-0.0-2.0,0,0,3,,,,,,,,,,,,,,,,,,,,,,,,,,,,,,,,,,,,,,55.0,1.5,
374,,feedback,,html-keyboard-response,374,245579,0.0-1.0-69.0-0.0-3.0-0.0,0,0,3,,,,,,67.0,,,,,,,,,,,,,,,,,,,,,,,,,,,,,,,,56.0,1.0,
375,,iti,,html-keyboard-response,375,245684,0.0-1.0-69.0-0.0-5.0,0,0,3,,,,,,,,,,,,,,,,,,,,,,,,,,,,,,,,,,,,,,57.0,1.0,
376,,choice,,html-keyboard-response,376,245877,0.0-1.0-70.0-0.0-0.0,0,0,3,,189.0,,,50.0,68.0,70.0,1500.0,1500.0,0.0,2.0,1.0,20-20,1.0,,key chain,key chain,20.0,20.0,key chain3,key chain7,20.0,40.0,Keychain_Voice_Recorder.jpg,keychain-gentoo-linux.jpg,/static/Category_learning/Stimuli/Experimental_stims/key chain/Keychain_Voice_Recorder.jpg,/static/Category_learning/Stimuli/Experimental_stims/key chain/keychain-gentoo-linux.jpg,1.0,key chain,key chain,20.0,20.0,key chain3,key chain7,20.0,40.0,0.0,57.189,0.189,
377,,confirmation,,html-keyboard-response,377,247194,0.0-1.0-70.0-0.0-1.0-0.0,0,0,3,,,,,,68.0,,,,,,,,,,,,,,,,,,,,,,,,,,,,,,,,58.5,1.311,
378,,isi,,html-keyboard-response,378,247298,0.0-1.0-70.0-0.0-2.0,0,0,3,,,,,,,,,,,,,,,,,,,,,,,,,,,,,,,,,,,,,,60.0,1.5,
379,,feedback,,html-keyboard-response,379,248305,0.0-1.0-70.0-0.0-3.0-0.0,0,0,3,,,,,,68.0,,,,,,,,,,,,,,,,,,,,,,,,,,,,,,,,61.0,1.0,
380,,iti,,html-keyboard-response,380,248411,0.0-1.0-70.0-0.0-5.0,0,0,3,,,,,,,,,,,,,,,,,,,,,,,,,,,,,,,,,,,,,,62.5,1.5,
381,,choice,,html-keyboard-response,381,248464,0.0-1.0-71.0-0.0-0.0,0,0,3,,50.0,,,50.0,69.0,71.0,1500.0,1000.0,0.0,2.0,1.0,80-80,1.0,,bench,bench,80.0,80.0,bench10,bench7,100.0,100.0,APARKBE16.jpg,ACONBENCH.jpg,/static/Category_learning/Stimuli/Experimental_stims/bench/APARKBE16.jpg,/static/Category_learning/Stimuli/Experimental_stims/bench/ACONBENCH.jpg,1.0,bench,bench,80.0,80.0,bench10,bench7,100.0,100.0,0.0,62.55,0.05,
382,,confirmation,,html-keyboard-response,382,249919,0.0-1.0-71.0-0.0-1.0-0.0,0,0,3,,,,,,69.0,,,,,,,,,,,,,,,,,,,,,,,,,,,,,,,,64.0,1.45,
383,,isi,,html-keyboard-response,383,250024,0.0-1.0-71.0-0.0-2.0,0,0,3,,,,,,,,,,,,,,,,,,,,,,,,,,,,,,,,,,,,,,65.5,1.5,
384,,feedback,,html-keyboard-response,384,251029,0.0-1.0-71.0-0.0-3.0-0.0,0,0,3,,,,,,69.0,,,,,,,,,,,,,,,,,,,,,,,,,,,,,,,,66.5,1.0,
385,,iti,,html-keyboard-response,385,251131,0.0-1.0-71.0-0.0-5.0,0,0,3,,,,,,,,,,,,,,,,,,,,,,,,,,,,,,,,,,,,,,67.5,1.0,
386,,choice,,html-keyboard-response,386,251462,0.0-1.0-72.0-0.0-0.0,0,0,3,,327.0,,,50.0,70.0,72.0,1000.0,2000.0,0.0,2.0,0.0,20-60,,0.0,microscope,telescope,20.0,60.0,microscope12,telescope14,0.0,80.0,usbdigitalmicroscope1_small1.jpg,T09748dt.jpg,/static/Category_learning/Stimuli/Experimental_stims/microscope/usbdigitalmicroscope1_small1.jpg,/static/Category_learning/Stimuli/Experimental_stims/telescope/T09748dt.jpg,1.0,microscope,telescope,20.0,60.0,microscope12,telescope14,0.0,80.0,0.0,67.827,0.327,
387,,confirmation,,html-keyboard-response,387,252641,0.0-1.0-72.0-0.0-1.0-0.0,0,0,3,,,,,,70.0,,,,,,,,,,,,,,,,,,,,,,,,,,,,,,,,69.0,1.173,
388,,isi,,html-keyboard-response,388,252746,0.0-1.0-72.0-0.0-2.0,0,0,3,,,,,,,,,,,,,,,,,,,,,,,,,,,,,,,,,,,,,,70.0,1.0,
389,,feedback,,html-keyboard-response,389,253753,0.0-1.0-72.0-0.0-3.0-0.0,0,0,3,,,,,,70.0,,,,,,,,,,,,,,,,,,,,,,,,,,,,,,,,71.0,1.0,
390,,iti,,html-keyboard-response,390,253856,0.0-1.0-72.0-0.0-5.0,0,0,3,,,,,,,,,,,,,,,,,,,,,,,,,,,,,,,,,,,,,,73.0,2.0,
391,,choice,,html-keyboard-response,391,254057,0.0-1.0-73.0-0.0-0.0,0,0,3,,197.0,,,50.0,71.0,73.0,1000.0,1000.0,0.0,2.0,0.0,20-80,,1.0,bench,hat,80.0,20.0,bench13,hat14,80.0,0.0,ABROWNBE4.jpg,Ahat136.jpg,/static/Category_learning/Stimuli/Experimental_stims/bench/ABROWNBE4.jpg,/static/Category_learning/Stimuli/Experimental_stims/hat/Ahat136.jpg,1.0,bench,hat,80.0,20.0,bench13,hat14,80.0,0.0,0.0,73.197,0.197,
392,,confirmation,,html-keyboard-response,392,255367,0.0-1.0-73.0-0.0-1.0-0.0,0,0,3,,,,,,71.0,,,,,,,,,,,,,,,,,,,,,,,,,,,,,,,,74.5,1.303,
393,,isi,,html-keyboard-response,393,255474,0.0-1.0-73.0-0.0-2.0,0,0,3,,,,,,,,,,,,,,,,,,,,,,,,,,,,,,,,,,,,,,75.5,1.0,
394,,feedback,,html-keyboard-response,394,256480,0.0-1.0-73.0-0.0-3.0-0.0,0,0,3,,,,,,71.0,,,,,,,,,,,,,,,,,,,,,,,,,,,,,,,,76.5,1.0,
395,,iti,,html-keyboard-response,395,256587,0.0-1.0-73.0-0.0-5.0,0,0,3,,,,,,,,,,,,,,,,,,,,,,,,,,,,,,,,,,,,,,77.5,1.0,
396,,choice,,html-keyboard-response,396,256780,0.0-1.0-74.0-0.0-0.0,0,0,3,,188.0,,,50.0,72.0,74.0,1500.0,1000.0,0.0,2.0,1.0,80-80,0.0,,bench,baby carriage,80.0,80.0,bench13,baby carriage9,80.0,100.0,ABROWNBE4.jpg,Antique baby Carriage 7.jpg,/static/Category_learning/Stimuli/Experimental_stims/bench/ABROWNBE4.jpg,/static/Category_learning/Stimuli/Experimental_stims/baby carriage/Antique baby Carriage 7.jpg,1.0,bench,baby carriage,80.0,80.0,bench13,baby carriage9,80.0,100.0,0.0,77.688,0.188,
397,,confirmation,,html-keyboard-response,397,258098,0.0-1.0-74.0-0.0-1.0-0.0,0,0,3,,,,,,72.0,,,,,,,,,,,,,,,,,,,,,,,,,,,,,,,,79.0,1.312,
398,,isi,,html-keyboard-response,398,258205,0.0-1.0-74.0-0.0-2.0,0,0,3,,,,,,,,,,,,,,,,,,,,,,,,,,,,,,,,,,,,,,80.5,1.5,
399,,feedback,,html-keyboard-response,399,259210,0.0-1.0-74.0-0.0-3.0-0.0,0,0,3,,,,,,72.0,,,,,,,,,,,,,,,,,,,,,,,,,,,,,,,,81.5,1.0,
400,,iti,,html-keyboard-response,400,259317,0.0-1.0-74.0-0.0-5.0,0,0,3,,,,,,,,,,,,,,,,,,,,,,,,,,,,,,,,,,,,,,82.5,1.0,
401,,choice,,html-keyboard-response,401,260044,0.0-1.0-75.0-0.0-0.0,0,0,3,,724.0,,,50.0,73.0,75.0,1000.0,2000.0,0.0,2.0,0.0,20-20,,,motorcycle,hat,20.0,20.0,motorcycle6,hat13,40.0,0.0,motorcycle45364t4t.jpg,Ahatwithfeath.jpg,/static/Category_learning/Stimuli/Experimental_stims/motorcycle/motorcycle45364t4t.jpg,/static/Category_learning/Stimuli/Experimental_stims/hat/Ahatwithfeath.jpg,1.0,motorcycle,hat,20.0,20.0,motorcycle6,hat13,40.0,0.0,0.0,83.224,0.724,
402,,confirmation,,html-keyboard-response,402,260826,0.0-1.0-75.0-0.0-1.0-0.0,0,0,3,,,,,,73.0,,,,,,,,,,,,,,,,,,,,,,,,,,,,,,,,84.0,0.776,
403,,isi,,html-keyboard-response,403,260931,0.0-1.0-75.0-0.0-2.0,0,0,3,,,,,,,,,,,,,,,,,,,,,,,,,,,,,,,,,,,,,,85.0,1.0,
404,,feedback,,html-keyboard-response,404,261939,0.0-1.0-75.0-0.0-3.0-0.0,0,0,3,,,,,,73.0,,,,,,,,,,,,,,,,,,,,,,,,,,,,,,,,86.0,1.0,
405,,iti,,html-keyboard-response,405,262043,0.0-1.0-75.0-0.0-5.0,0,0,3,,,,,,,,,,,,,,,,,,,,,,,,,,,,,,,,,,,,,,88.0,2.0,
406,,choice,,html-keyboard-response,406,262374,0.0-1.0-76.0-0.0-0.0,0,0,3,,328.0,,,50.0,74.0,76.0,1000.0,1000.0,0.0,2.0,0.0,40-80,,1.0,desk,patio lounge chair,80.0,40.0,desk4,patio lounge chair13,80.0,20.0,AbbeyMiniRadialBIG(1).jpg,grosfillex-bahia-resin-chaise-lounges.jpg,/static/Category_learning/Stimuli/Experimental_stims/desk/AbbeyMiniRadialBIG(1).jpg,/static/Category_learning/Stimuli/Experimental_stims/patio lounge chair/grosfillex-bahia-resin-chaise-lounges.jpg,1.0,desk,patio lounge chair,80.0,40.0,desk4,patio lounge chair13,80.0,20.0,0.0,88.328,0.328,
407,,confirmation,,html-keyboard-response,407,263555,0.0-1.0-76.0-0.0-1.0-0.0,0,0,3,,,,,,74.0,,,,,,,,,,,,,,,,,,,,,,,,,,,,,,,,89.5,1.172,
408,,isi,,html-keyboard-response,408,263661,0.0-1.0-76.0-0.0-2.0,0,0,3,,,,,,,,,,,,,,,,,,,,,,,,,,,,,,,,,,,,,,90.5,1.0,
409,,feedback,,html-keyboard-response,409,264668,0.0-1.0-76.0-0.0-3.0-0.0,0,0,3,,,,,,74.0,,,,,,,,,,,,,,,,,,,,,,,,,,,,,,,,91.5,1.0,
410,,iti,,html-keyboard-response,410,264775,0.0-1.0-76.0-0.0-5.0,0,0,3,,,,,,,,,,,,,,,,,,,,,,,,,,,,,,,,,,,,,,92.5,1.0,
411,,choice,,html-keyboard-response,411,265053,0.0-1.0-77.0-0.0-0.0,0,0,3,,273.0,,,50.0,75.0,77.0,2000.0,1500.0,0.0,2.0,1.0,80-80,1.0,,desk,desk,80.0,80.0,desk1,desk4,100.0,80.0,ADESK11.jpg,AbbeyMiniRadialBIG(1).jpg,/static/Category_learning/Stimuli/Experimental_stims/desk/ADESK11.jpg,/static/Category_learning/Stimuli/Experimental_stims/desk/AbbeyMiniRadialBIG(1).jpg,1.0,desk,desk,80.0,80.0,desk1,desk4,100.0,80.0,0.0,92.773,0.273,
412,,confirmation,,html-keyboard-response,412,266286,0.0-1.0-77.0-0.0-1.0-0.0,0,0,3,,,,,,75.0,,,,,,,,,,,,,,,,,,,,,,,,,,,,,,,,94.0,1.227,
413,,isi,,html-keyboard-response,413,266392,0.0-1.0-77.0-0.0-2.0,0,0,3,,,,,,,,,,,,,,,,,,,,,,,,,,,,,,,,,,,,,,96.0,2.0,
414,,feedback,,html-keyboard-response,414,267400,0.0-1.0-77.0-0.0-3.0-0.0,0,0,3,,,,,,75.0,,,,,,,,,,,,,,,,,,,,,,,,,,,,,,,,97.0,1.0,
415,,iti,,html-keyboard-response,415,267504,0.0-1.0-77.0-0.0-5.0,0,0,3,,,,,,,,,,,,,,,,,,,,,,,,,,,,,,,,,,,,,,98.5,1.5,
416,,choice,,html-keyboard-response,416,268149,0.0-1.0-78.0-0.0-0.0,0,0,3,,641.0,,,50.0,76.0,78.0,2000.0,1000.0,0.0,2.0,0.0,20-40,,1.0,patio lounge chair,hat,40.0,20.0,patio lounge chair7,hat2,40.0,40.0,lg_Serenity_Riviera[1].jpg,Ahatwithfeat7.jpg,/static/Category_learning/Stimuli/Experimental_stims/patio lounge chair/lg_Serenity_Riviera[1].jpg,/static/Category_learning/Stimuli/Experimental_stims/hat/Ahatwithfeat7.jpg,1.0,patio lounge chair,hat,40.0,20.0,patio lounge chair7,hat2,40.0,40.0,0.0,99.141,0.641,
417,,confirmation,,html-keyboard-response,417,269011,0.0-1.0-78.0-0.0-1.0-0.0,0,0,3,,,,,,76.0,,,,,,,,,,,,,,,,,,,,,,,,,,,,,,,,100.0,0.859,
418,,isi,,html-keyboard-response,418,269115,0.0-1.0-78.0-0.0-2.0,0,0,3,,,,,,,,,,,,,,,,,,,,,,,,,,,,,,,,,,,,,,102.0,2.0,
419,,feedback,,html-keyboard-response,419,270120,0.0-1.0-78.0-0.0-3.0-0.0,0,0,3,,,,,,76.0,,,,,,,,,,,,,,,,,,,,,,,,,,,,,,,,103.0,1.0,
420,,iti,,html-keyboard-response,420,270224,0.0-1.0-78.0-0.0-5.0,0,0,3,,,,,,,,,,,,,,,,,,,,,,,,,,,,,,,,,,,,,,104.0,1.0,
421,,choice,,html-keyboard-response,421,270507,0.0-1.0-79.0-0.0-0.0,0,0,3,,279.0,,,50.0,77.0,79.0,1500.0,2000.0,0.0,2.0,1.0,20-20,1.0,,motorcycle,motorcycle,20.0,20.0,motorcycle7,motorcycle6,20.0,40.0,MotoSmall.jpg,motorcycle45364t4t.jpg,/static/Category_learning/Stimuli/Experimental_stims/motorcycle/MotoSmall.jpg,/static/Category_learning/Stimuli/Experimental_stims/motorcycle/motorcycle45364t4t.jpg,1.0,motorcycle,motorcycle,20.0,20.0,motorcycle7,motorcycle6,20.0,40.0,0.0,104.279,0.279,
422,,confirmation,,html-keyboard-response,422,271732,0.0-1.0-79.0-0.0-1.0-0.0,0,0,3,,,,,,77.0,,,,,,,,,,,,,,,,,,,,,,,,,,,,,,,,105.5,1.221,
423,,isi,,html-keyboard-response,423,271837,0.0-1.0-79.0-0.0-2.0,0,0,3,,,,,,,,,,,,,,,,,,,,,,,,,,,,,,,,,,,,,,107.0,1.5,
424,,feedback,,html-keyboard-response,424,272845,0.0-1.0-79.0-0.0-3.0-0.0,0,0,3,,,,,,77.0,,,,,,,,,,,,,,,,,,,,,,,,,,,,,,,,108.0,1.0,
425,,iti,,html-keyboard-response,425,272953,0.0-1.0-79.0-0.0-5.0,0,0,3,,,,,,,,,,,,,,,,,,,,,,,,,,,,,,,,,,,,,,110.0,2.0,
426,,choice,,html-keyboard-response,426,273057,0.0-1.0-80.0-0.0-0.0,0,0,3,,100.0,,,50.0,78.0,80.0,1000.0,1500.0,0.0,2.0,0.0,20-80,,0.0,hat,flashlight,20.0,80.0,hat9,flashlight7,40.0,60.0,Astrawhat44.jpg,11900.jpg,/static/Category_learning/Stimuli/Experimental_stims/hat/Astrawhat44.jpg,/static/Category_learning/Stimuli/Experimental_stims/flashlight/11900.jpg,1.0,hat,flashlight,20.0,80.0,hat9,flashlight7,40.0,60.0,0.0,110.1,0.1,
427,,confirmation,,html-keyboard-response,427,274463,0.0-1.0-80.0-0.0-1.0-0.0,0,0,3,,,,,,78.0,,,,,,,,,,,,,,,,,,,,,,,,,,,,,,,,111.5,1.4,
428,,isi,,html-keyboard-response,428,274567,0.0-1.0-80.0-0.0-2.0,0,0,3,,,,,,,,,,,,,,,,,,,,,,,,,,,,,,,,,,,,,,112.5,1.0,
429,,feedback,,html-keyboard-response,429,275572,0.0-1.0-80.0-0.0-3.0-0.0,0,0,3,,,,,,78.0,,,,,,,,,,,,,,,,,,,,,,,,,,,,,,,,113.5,1.0,
430,,iti,,html-keyboard-response,430,275675,0.0-1.0-80.0-0.0-5.0,0,0,3,,,,,,,,,,,,,,,,,,,,,,,,,,,,,,,,,,,,,,115.0,1.5,
431,,choice,,html-keyboard-response,431,276039,0.0-1.0-81.0-0.0-0.0,0,0,3,,360.0,,,50.0,79.0,81.0,2000.0,1500.0,0.0,2.0,0.0,40-60,,1.0,telescope,sofa,60.0,40.0,telescope2,sofa15,60.0,40.0,Brass-telescope-60700.jpg,APEACHLOV.jpg,/static/Category_learning/Stimuli/Experimental_stims/telescope/Brass-telescope-60700.jpg,/static/Category_learning/Stimuli/Experimental_stims/sofa/APEACHLOV.jpg,1.0,telescope,sofa,60.0,40.0,telescope2,sofa15,60.0,40.0,0.0,115.36,0.36,
432,,confirmation,,html-keyboard-response,432,277187,0.0-1.0-81.0-0.0-1.0-0.0,0,0,3,,,,,,79.0,,,,,,,,,,,,,,,,,,,,,,,,,,,,,,,,116.5,1.14,
433,,isi,,html-keyboard-response,433,277293,0.0-1.0-81.0-0.0-2.0,0,0,3,,,,,,,,,,,,,,,,,,,,,,,,,,,,,,,,,,,,,,118.5,2.0,
434,,feedback,,html-keyboard-response,434,278300,0.0-1.0-81.0-0.0-3.0-0.0,0,0,3,,,,,,79.0,,,,,,,,,,,,,,,,,,,,,,,,,,,,,,,,119.5,1.0,
435,,iti,,html-keyboard-response,435,278408,0.0-1.0-81.0-0.0-5.0,0,0,3,,,,,,,,,,,,,,,,,,,,,,,,,,,,,,,,,,,,,,121.0,1.5,
436,,choice,,html-keyboard-response,436,278463,0.0-1.0-82.0-0.0-0.0,0,0,3,,50.0,,,50.0,80.0,82.0,2000.0,1000.0,0.0,2.0,0.0,20-60,,1.0,train,makeup compact,60.0,20.0,train2,makeup compact15,80.0,40.0,iron_train.jpg,05086681402.jpg,/static/Category_learning/Stimuli/Experimental_stims/train/iron_train.jpg,/static/Category_learning/Stimuli/Experimental_stims/makeup compact/05086681402.jpg,1.0,train,makeup compact,60.0,20.0,train2,makeup compact15,80.0,40.0,0.0,121.05,0.05,
437,,confirmation,,html-keyboard-response,437,279917,0.0-1.0-82.0-0.0-1.0-0.0,0,0,3,,,,,,80.0,,,,,,,,,,,,,,,,,,,,,,,,,,,,,,,,122.5,1.45,
438,,isi,,html-keyboard-response,438,280024,0.0-1.0-82.0-0.0-2.0,0,0,3,,,,,,,,,,,,,,,,,,,,,,,,,,,,,,,,,,,,,,124.5,2.0,
439,,feedback,,html-keyboard-response,439,281032,0.0-1.0-82.0-0.0-3.0-0.0,0,0,3,,,,,,80.0,,,,,,,,,,,,,,,,,,,,,,,,,,,,,,,,125.5,1.0,
440,,iti,,html-keyboard-response,440,281139,0.0-1.0-82.0-0.0-5.0,0,0,3,,,,,,,,,,,,,,,,,,,,,,,,,,,,,,,,,,,,,,126.5,1.0,
441,,choice,,html-keyboard-response,441,281194,0.0-1.0-83.0-0.0-0.0,0,0,3,,51.0,,,50.0,81.0,83.0,3500.0,1000.0,0.0,2.0,0.0,40-40,,,sofa,power strip,40.0,40.0,sofa4,power strip11,20.0,60.0,ALOVSEA15.jpg,41Bw7Tl1G7L._AA262_.jpg,/static/Category_learning/Stimuli/Experimental_stims/sofa/ALOVSEA15.jpg,/static/Category_learning/Stimuli/Experimental_stims/power strip/41Bw7Tl1G7L._AA262_.jpg,1.0,sofa,power strip,40.0,40.0,sofa4,power strip11,20.0,60.0,0.0,126.551,0.051,
442,,confirmation,,html-keyboard-response,442,282650,0.0-1.0-83.0-0.0-1.0-0.0,0,0,3,,,,,,81.0,,,,,,,,,,,,,,,,,,,,,,,,,,,,,,,,128.0,1.449,
443,,isi,,html-keyboard-response,443,282755,0.0-1.0-83.0-0.0-2.0,0,0,3,,,,,,,,,,,,,,,,,,,,,,,,,,,,,,,,,,,,,,131.5,3.5,
444,,feedback,,html-keyboard-response,444,283760,0.0-1.0-83.0-0.0-3.0-0.0,0,0,3,,,,,,81.0,,,,,,,,,,,,,,,,,,,,,,,,,,,,,,,,132.5,1.0,
445,,iti,,html-keyboard-response,445,283867,0.0-1.0-83.0-0.0-5.0,0,0,3,,,,,,,,,,,,,,,,,,,,,,,,,,,,,,,,,,,,,,133.5,1.0,
446,,choice,,html-keyboard-response,446,283874,0.0-1.0-84.0-0.0-0.0,0,0,3,,3.0,,,50.0,82.0,84.0,1500.0,1000.0,0.0,2.0,0.0,20-80,,0.0,hammer,bongo,20.0,80.0,hammer2,bongo3,0.0,100.0,hammer04.jpg,26390697.thl.jpg,/static/Category_learning/Stimuli/Experimental_stims/hammer/hammer04.jpg,/static/Category_learning/Stimuli/Experimental_stims/bongo/26390697.thl.jpg,1.0,hammer,bongo,20.0,80.0,hammer2,bongo3,0.0,100.0,0.0,133.503,0.003,
447,,confirmation,,html-keyboard-response,447,285377,0.0-1.0-84.0-0.0-1.0-0.0,0,0,3,,,,,,82.0,,,,,,,,,,,,,,,,,,,,,,,,,,,,,,,,135.0,1.497,
448,,isi,,html-keyboard-response,448,285483,0.0-1.0-84.0-0.0-2.0,0,0,3,,,,,,,,,,,,,,,,,,,,,,,,,,,,,,,,,,,,,,136.5,1.5,
449,,feedback,,html-keyboard-response,449,286491,0.0-1.0-84.0-0.0-3.0-0.0,0,0,3,,,,,,82.0,,,,,,,,,,,,,,,,,,,,,,,,,,,,,,,,137.5,1.0,
450,,iti,,html-keyboard-response,450,286596,0.0-1.0-84.0-0.0-5.0,0,0,3,,,,,,,,,,,,,,,,,,,,,,,,,,,,,,,,,,,,,,138.5,1.0,
451,,choice,,html-keyboard-response,451,286895,0.0-1.0-85.0-0.0-0.0,0,0,3,,294.0,,,50.0,83.0,85.0,1500.0,1000.0,0.0,2.0,0.0,40-60,,1.0,trumpet,power strip,60.0,40.0,trumpet10,power strip15,60.0,20.0,trumpet2.jpg,31oz6aGZN7L._AA262_.jpg,/static/Category_learning/Stimuli/Experimental_stims/trumpet/trumpet2.jpg,/static/Category_learning/Stimuli/Experimental_stims/power strip/31oz6aGZN7L._AA262_.jpg,1.0,trumpet,power strip,60.0,40.0,trumpet10,power strip15,60.0,20.0,0.0,138.794,0.294,
452,,confirmation,,html-keyboard-response,452,288109,0.0-1.0-85.0-0.0-1.0-0.0,0,0,3,,,,,,83.0,,,,,,,,,,,,,,,,,,,,,,,,,,,,,,,,140.0,1.206,
453,,isi,,html-keyboard-response,453,288217,0.0-1.0-85.0-0.0-2.0,0,0,3,,,,,,,,,,,,,,,,,,,,,,,,,,,,,,,,,,,,,,141.5,1.5,
454,,feedback,,html-keyboard-response,454,289224,0.0-1.0-85.0-0.0-3.0-0.0,0,0,3,,,,,,83.0,,,,,,,,,,,,,,,,,,,,,,,,,,,,,,,,142.5,1.0,
455,,iti,,html-keyboard-response,455,289333,0.0-1.0-85.0-0.0-5.0,0,0,3,,,,,,,,,,,,,,,,,,,,,,,,,,,,,,,,,,,,,,143.5,1.0,
456,,choice,,html-keyboard-response,456,290195,0.0-1.0-86.0-0.0-0.0,0,0,3,,858.0,,,50.0,84.0,86.0,1500.0,2000.0,0.0,2.0,1.0,60-60,1.0,,telescope,telescope,60.0,60.0,telescope4,telescope2,60.0,60.0,TELESCOPE_BLACK_GOOD_SMALL.jpg,Brass-telescope-60700.jpg,/static/Category_learning/Stimuli/Experimental_stims/telescope/TELESCOPE_BLACK_GOOD_SMALL.jpg,/static/Category_learning/Stimuli/Experimental_stims/telescope/Brass-telescope-60700.jpg,1.0,telescope,telescope,60.0,60.0,telescope4,telescope2,60.0,60.0,0.0,144.358,0.858,
457,,confirmation,,html-keyboard-response,457,290845,0.0-1.0-86.0-0.0-1.0-0.0,0,0,3,,,,,,84.0,,,,,,,,,,,,,,,,,,,,,,,,,,,,,,,,145.0,0.642,
458,,isi,,html-keyboard-response,458,290953,0.0-1.0-86.0-0.0-2.0,0,0,3,,,,,,,,,,,,,,,,,,,,,,,,,,,,,,,,,,,,,,146.5,1.5,
459,,feedback,,html-keyboard-response,459,291957,0.0-1.0-86.0-0.0-3.0-0.0,0,0,3,,,,,,84.0,,,,,,,,,,,,,,,,,,,,,,,,,,,,,,,,147.5,1.0,
460,,iti,,html-keyboard-response,460,292064,0.0-1.0-86.0-0.0-5.0,0,0,3,,,,,,,,,,,,,,,,,,,,,,,,,,,,,,,,,,,,,,149.5,2.0,
461,,choice,,html-keyboard-response,461,292182,0.0-1.0-87.0-0.0-0.0,0,0,3,,115.0,,,50.0,85.0,87.0,1500.0,1500.0,0.0,2.0,1.0,20-20,1.0,,hat,hat,20.0,20.0,hat9,hat7,40.0,20.0,Astrawhat44.jpg,ASTRHATFL.jpg,/static/Category_learning/Stimuli/Experimental_stims/hat/Astrawhat44.jpg,/static/Category_learning/Stimuli/Experimental_stims/hat/ASTRHATFL.jpg,1.0,hat,hat,20.0,20.0,hat9,hat7,40.0,20.0,0.0,149.615,0.115,
462,,confirmation,,html-keyboard-response,462,293573,0.0-1.0-87.0-0.0-1.0-0.0,0,0,3,,,,,,85.0,,,,,,,,,,,,,,,,,,,,,,,,,,,,,,,,151.0,1.385,
463,,isi,,html-keyboard-response,463,293676,0.0-1.0-87.0-0.0-2.0,0,0,3,,,,,,,,,,,,,,,,,,,,,,,,,,,,,,,,,,,,,,152.5,1.5,
464,,feedback,,html-keyboard-response,464,294680,0.0-1.0-87.0-0.0-3.0-0.0,0,0,3,,,,,,85.0,,,,,,,,,,,,,,,,,,,,,,,,,,,,,,,,153.5,1.0,
465,,iti,,html-keyboard-response,465,294785,0.0-1.0-87.0-0.0-5.0,0,0,3,,,,,,,,,,,,,,,,,,,,,,,,,,,,,,,,,,,,,,155.0,1.5,
466,,choice,,html-keyboard-response,466,294857,0.0-1.0-88.0-0.0-0.0,0,0,3,,68.0,,,50.0,86.0,88.0,1000.0,1500.0,0.0,2.0,0.0,20-20,,,key chain,motorcycle,20.0,20.0,key chain13,motorcycle14,0.0,20.0,Fancy_Liquid_Column_Shape_Key_Ring_with_Floater.jpg,motorcycle11.jpg,/static/Category_learning/Stimuli/Experimental_stims/key chain/Fancy_Liquid_Column_Shape_Key_Ring_with_Floater.jpg,/static/Category_learning/Stimuli/Experimental_stims/motorcycle/motorcycle11.jpg,1.0,key chain,motorcycle,20.0,20.0,key chain13,motorcycle14,0.0,20.0,0.0,155.068,0.068,
467,,confirmation,,html-keyboard-response,467,296294,0.0-1.0-88.0-0.0-1.0-0.0,0,0,3,,,,,,86.0,,,,,,,,,,,,,,,,,,,,,,,,,,,,,,,,156.5,1.432,
468,,isi,,html-keyboard-response,468,296398,0.0-1.0-88.0-0.0-2.0,0,0,3,,,,,,,,,,,,,,,,,,,,,,,,,,,,,,,,,,,,,,157.5,1.0,
469,,feedback,,html-keyboard-response,469,297405,0.0-1.0-88.0-0.0-3.0-0.0,0,0,3,,,,,,86.0,,,,,,,,,,,,,,,,,,,,,,,,,,,,,,,,158.5,1.0,
470,,iti,,html-keyboard-response,470,297511,0.0-1.0-88.0-0.0-5.0,0,0,3,,,,,,,,,,,,,,,,,,,,,,,,,,,,,,,,,,,,,,160.0,1.5,
471,,choice,,html-keyboard-response,471,297833,0.0-1.0-89.0-0.0-0.0,0,0,3,,318.0,,,50.0,87.0,89.0,2000.0,2000.0,0.0,2.0,0.0,40-80,,0.0,small table,fan,40.0,80.0,small table14,fan11,40.0,80.0,Awoodtable13.jpg,n_sf.jpg,/static/Category_learning/Stimuli/Experimental_stims/small table/Awoodtable13.jpg,/static/Category_learning/Stimuli/Experimental_stims/fan/n_sf.jpg,1.0,small table,fan,40.0,80.0,small table14,fan11,40.0,80.0,0.0,160.318,0.318,
472,,confirmation,,html-keyboard-response,472,299024,0.0-1.0-89.0-0.0-1.0-0.0,0,0,3,,,,,,87.0,,,,,,,,,,,,,,,,,,,,,,,,,,,,,,,,161.5,1.182,
473,,isi,,html-keyboard-response,473,299130,0.0-1.0-89.0-0.0-2.0,0,0,3,,,,,,,,,,,,,,,,,,,,,,,,,,,,,,,,,,,,,,163.5,2.0,
474,,feedback,,html-keyboard-response,474,300138,0.0-1.0-89.0-0.0-3.0-0.0,0,0,3,,,,,,87.0,,,,,,,,,,,,,,,,,,,,,,,,,,,,,,,,164.5,1.0,
475,,iti,,html-keyboard-response,475,300245,0.0-1.0-89.0-0.0-5.0,0,0,3,,,,,,,,,,,,,,,,,,,,,,,,,,,,,,,,,,,,,,166.5,2.0,
476,,choice,,html-keyboard-response,476,300257,0.0-1.0-90.0-0.0-0.0,0,0,3,,7.0,,,50.0,88.0,90.0,2000.0,3500.0,0.0,2.0,0.0,40-80,,1.0,baby carriage,patio lounge chair,80.0,40.0,baby carriage1,patio lounge chair6,100.0,40.0,babycarriage16.jpg,Lounge_Chair_with_Pillow.jpg,/static/Category_learning/Stimuli/Experimental_stims/baby carriage/babycarriage16.jpg,/static/Category_learning/Stimuli/Experimental_stims/patio lounge chair/Lounge_Chair_with_Pillow.jpg,1.0,baby carriage,patio lounge chair,80.0,40.0,baby carriage1,patio lounge chair6,100.0,40.0,0.0,166.507,0.007,
477,,confirmation,,html-keyboard-response,477,301754,0.0-1.0-90.0-0.0-1.0-0.0,0,0,3,,,,,,88.0,,,,,,,,,,,,,,,,,,,,,,,,,,,,,,,,168.0,1.493,
478,,isi,,html-keyboard-response,478,301860,0.0-1.0-90.0-0.0-2.0,0,0,3,,,,,,,,,,,,,,,,,,,,,,,,,,,,,,,,,,,,,,170.0,2.0,
479,,feedback,,html-keyboard-response,479,302867,0.0-1.0-90.0-0.0-3.0-0.0,0,0,3,,,,,,88.0,,,,,,,,,,,,,,,,,,,,,,,,,,,,,,,,171.0,1.0,
480,,iti,,html-keyboard-response,480,302973,0.0-1.0-90.0-0.0-5.0,0,0,3,,,,,,,,,,,,,,,,,,,,,,,,,,,,,,,,,,,,,,174.5,3.5,
481,,choice,,html-keyboard-response,481,303217,0.0-1.0-91.0-0.0-0.0,0,0,3,,240.0,,,50.0,89.0,91.0,1000.0,2000.0,0.0,2.0,0.0,40-80,,0.0,patio lounge chair,bowl,40.0,80.0,patio lounge chair10,bowl2,20.0,100.0,51831.jpg,AMIXBOWL2.jpg,/static/Category_learning/Stimuli/Experimental_stims/patio lounge chair/51831.jpg,/static/Category_learning/Stimuli/Experimental_stims/bowl/AMIXBOWL2.jpg,1.0,patio lounge chair,bowl,40.0,80.0,patio lounge chair10,bowl2,20.0,100.0,0.0,174.74,0.24,
482,,confirmation,,html-keyboard-response,482,304483,0.0-1.0-91.0-0.0-1.0-0.0,0,0,3,,,,,,89.0,,,,,,,,,,,,,,,,,,,,,,,,,,,,,,,,176.0,1.26,
483,,isi,,html-keyboard-response,483,304589,0.0-1.0-91.0-0.0-2.0,0,0,3,,,,,,,,,,,,,,,,,,,,,,,,,,,,,,,,,,,,,,177.0,1.0,
484,,feedback,,html-keyboard-response,484,305596,0.0-1.0-91.0-0.0-3.0-0.0,0,0,3,,,,,,89.0,,,,,,,,,,,,,,,,,,,,,,,,,,,,,,,,178.0,1.0,
485,,iti,,html-keyboard-response,485,305702,0.0-1.0-91.0-0.0-5.0,0,0,3,,,,,,,,,,,,,,,,,,,,,,,,,,,,,,,,,,,,,,180.0,2.0,
486,,choice,,html-keyboard-response,486,305745,0.0-1.0-92.0-0.0-0.0,0,0,3,,39.0,,,50.0,90.0,92.0,1500.0,1500.0,0.0,2.0,0.0,60-80,,0.0,tent,dresser,60.0,80.0,tent12,dresser10,40.0,60.0,31316-AZU_m.jpg,ADRESSE14.jpg,/static/Category_learning/Stimuli/Experimental_stims/tent/31316-AZU_m.jpg,/static/Category_learning/Stimuli/Experimental_stims/dresser/ADRESSE14.jpg,1.0,tent,dresser,60.0,80.0,tent12,dresser10,40.0,60.0,0.0,180.039,0.039,
487,,confirmation,,html-keyboard-response,487,307212,0.0-1.0-92.0-0.0-1.0-0.0,0,0,3,,,,,,90.0,,,,,,,,,,,,,,,,,,,,,,,,,,,,,,,,181.5,1.461,
488,,isi,,html-keyboard-response,488,307320,0.0-1.0-92.0-0.0-2.0,0,0,3,,,,,,,,,,,,,,,,,,,,,,,,,,,,,,,,,,,,,,183.0,1.5,
489,,feedback,,html-keyboard-response,489,308327,0.0-1.0-92.0-0.0-3.0-0.0,0,0,3,,,,,,90.0,,,,,,,,,,,,,,,,,,,,,,,,,,,,,,,,184.0,1.0,
490,,iti,,html-keyboard-response,490,308430,0.0-1.0-92.0-0.0-5.0,0,0,3,,,,,,,,,,,,,,,,,,,,,,,,,,,,,,,,,,,,,,185.5,1.5,
491,,choice,,html-keyboard-response,491,308486,0.0-1.0-93.0-0.0-0.0,0,0,3,,53.0,,,50.0,91.0,93.0,1000.0,1000.0,0.0,2.0,1.0,40-40,1.0,,small table,small table,40.0,40.0,small table14,small table15,40.0,60.0,Awoodtable13.jpg,ATABLE20.jpg,/static/Category_learning/Stimuli/Experimental_stims/small table/Awoodtable13.jpg,/static/Category_learning/Stimuli/Experimental_stims/small table/ATABLE20.jpg,1.0,small table,small table,40.0,40.0,small table14,small table15,40.0,60.0,0.0,185.553,0.053,
492,,confirmation,,html-keyboard-response,492,309939,0.0-1.0-93.0-0.0-1.0-0.0,0,0,3,,,,,,91.0,,,,,,,,,,,,,,,,,,,,,,,,,,,,,,,,187.0,1.447,
493,,isi,,html-keyboard-response,493,310048,0.0-1.0-93.0-0.0-2.0,0,0,3,,,,,,,,,,,,,,,,,,,,,,,,,,,,,,,,,,,,,,188.0,1.0,
494,,feedback,,html-keyboard-response,494,311054,0.0-1.0-93.0-0.0-3.0-0.0,0,0,3,,,,,,91.0,,,,,,,,,,,,,,,,,,,,,,,,,,,,,,,,189.0,1.0,
495,,iti,,html-keyboard-response,495,311161,0.0-1.0-93.0-0.0-5.0,0,0,3,,,,,,,,,,,,,,,,,,,,,,,,,,,,,,,,,,,,,,190.0,1.0,
496,,choice,,html-keyboard-response,496,311678,0.0-1.0-94.0-0.0-0.0,0,0,3,,510.0,,,50.0,92.0,94.0,1500.0,1000.0,0.0,2.0,0.0,40-80,,0.0,necklace,fan,40.0,80.0,necklace5,fan9,60.0,80.0,necklascenew08.jpg,FT-40A.jpg,/static/Category_learning/Stimuli/Experimental_stims/necklace/necklascenew08.jpg,/static/Category_learning/Stimuli/Experimental_stims/fan/FT-40A.jpg,1.0,necklace,fan,40.0,80.0,necklace5,fan9,60.0,80.0,0.0,190.51,0.51,
497,,confirmation,,html-keyboard-response,497,312673,0.0-1.0-94.0-0.0-1.0-0.0,0,0,3,,,,,,92.0,,,,,,,,,,,,,,,,,,,,,,,,,,,,,,,,191.5,0.99,
498,,isi,,html-keyboard-response,498,312777,0.0-1.0-94.0-0.0-2.0,0,0,3,,,,,,,,,,,,,,,,,,,,,,,,,,,,,,,,,,,,,,193.0,1.5,
499,,feedback,,html-keyboard-response,499,313783,0.0-1.0-94.0-0.0-3.0-0.0,0,0,3,,,,,,92.0,,,,,,,,,,,,,,,,,,,,,,,,,,,,,,,,194.0,1.0,
500,,iti,,html-keyboard-response,500,313892,0.0-1.0-94.0-0.0-5.0,0,0,3,,,,,,,,,,,,,,,,,,,,,,,,,,,,,,,,,,,,,,195.0,1.0,
501,,choice,,html-keyboard-response,501,314347,0.0-1.0-95.0-0.0-0.0,0,0,3,,451.0,,,50.0,93.0,95.0,1000.0,1500.0,0.0,2.0,1.0,20-20,1.0,,hammer,hammer,20.0,20.0,hammer14,hammer2,40.0,0.0,hammer.jpg,hammer04.jpg,/static/Category_learning/Stimuli/Experimental_stims/hammer/hammer.jpg,/static/Category_learning/Stimuli/Experimental_stims/hammer/hammer04.jpg,1.0,hammer,hammer,20.0,20.0,hammer14,hammer2,40.0,0.0,0.0,195.451,0.451,
502,,confirmation,,html-keyboard-response,502,315403,0.0-1.0-95.0-0.0-1.0-0.0,0,0,3,,,,,,93.0,,,,,,,,,,,,,,,,,,,,,,,,,,,,,,,,196.5,1.049,
503,,isi,,html-keyboard-response,503,315507,0.0-1.0-95.0-0.0-2.0,0,0,3,,,,,,,,,,,,,,,,,,,,,,,,,,,,,,,,,,,,,,197.5,1.0,
504,,feedback,,html-keyboard-response,504,316513,0.0-1.0-95.0-0.0-3.0-0.0,0,0,3,,,,,,93.0,,,,,,,,,,,,,,,,,,,,,,,,,,,,,,,,198.5,1.0,
505,,iti,,html-keyboard-response,505,316620,0.0-1.0-95.0-0.0-5.0,0,0,3,,,,,,,,,,,,,,,,,,,,,,,,,,,,,,,,,,,,,,200.0,1.5,
506,,choice,,html-keyboard-response,506,316630,0.0-1.0-96.0-0.0-0.0,0,0,3,,6.0,,,50.0,94.0,96.0,2000.0,3500.0,0.0,2.0,0.0,60-60,,,train,watch,60.0,60.0,train10,watch5,60.0,60.0,train3.jpg,B000GB0Q2K.01-A4LKQQKJ91IUZ._AA280_SCLZZZZZZZ_V66976251_.jpg,/static/Category_learning/Stimuli/Experimental_stims/train/train3.jpg,/static/Category_learning/Stimuli/Experimental_stims/watch/B000GB0Q2K.01-A4LKQQKJ91IUZ._AA280_SCLZZZZZZZ_V66976251_.jpg,1.0,train,watch,60.0,60.0,train10,watch5,60.0,60.0,0.0,200.006,0.006,
507,,confirmation,,html-keyboard-response,507,318129,0.0-1.0-96.0-0.0-1.0-0.0,0,0,3,,,,,,94.0,,,,,,,,,,,,,,,,,,,,,,,,,,,,,,,,201.5,1.494,
508,,isi,,html-keyboard-response,508,318233,0.0-1.0-96.0-0.0-2.0,0,0,3,,,,,,,,,,,,,,,,,,,,,,,,,,,,,,,,,,,,,,203.5,2.0,
509,,feedback,,html-keyboard-response,509,319242,0.0-1.0-96.0-0.0-3.0-0.0,0,0,3,,,,,,94.0,,,,,,,,,,,,,,,,,,,,,,,,,,,,,,,,204.5,1.0,
510,,iti,,html-keyboard-response,510,319347,0.0-1.0-96.0-0.0-5.0,0,0,3,,,,,,,,,,,,,,,,,,,,,,,,,,,,,,,,,,,,,,208.0,3.5,
