,success,ttype,start_time,trial_type,trial_index,time_elapsed,internal_node_id,warning,missed_checkup,PID,view_history,rt,responses,repeat_instructions,key_press,index,trial_num,isi,iti,is_practice,block,old_trial,pair_type,within_category,high_cat_on_left,left_category,right_category,left_category_value,right_category_value,left_exemplar,right_exemplar,left_exemplar_value,right_exemplar_value,left_img,right_img,left_img_path,right_img_path,left_chosen,chosen_category,unchosen_category,chosen_category_value,unchosen_category_value,chosen_exemplar,unchosen_exemplar,chosen_exemplar_value,unchosen_exemplar_value,no_response,onset,duration,end_practice,total_bonus_tally,category,category_group_value,category_value_response,did_not_enter_response
0,True,full_screen,d06012022hr2257,fullscreen,0,34262,0.0-0.0,0,0,97341,,,,,,,,,,,,,,,,,,,,,,,,,,,,,,,,,,,,,,,,,,,,,
1,,category_learning_instructions,,instructions,1,41252,0.0-1.0-0.0-0.0,0,0,97341,"[{""page_index"":0,""viewing_time"":1596},{""page_index"":1,""viewing_time"":302},{""page_index"":2,""viewing_time"":471},{""page_index"":3,""viewing_time"":454},{""page_index"":4,""viewing_time"":851},{""page_index"":5,""viewing_time"":917},{""page_index"":6,""viewing_time"":2396}]",6987.0,,,,,,,,,,,,,,,,,,,,,,,,,,,,,,,,,,,,,,,,,,,
2,,category_learning_comprehension_check,,survey-multi-choice,2,47279,0.0-1.0-0.0-1.0,0,0,97341,,6021.0,"{""Q0"":""True"",""Q1"":""True"",""Q2"":""Stay the same"",""Q3"":""D for left and K for right""}",0.0,,,,,,,,,,,,,,,,,,,,,,,,,,,,,,,,,,,,,,,,,
3,,,,html-keyboard-response,3,48321,0.0-1.0-1.0,0,0,97341,,1038.0,,,68.0,,,,,,,,,,,,,,,,,,,,,,,,,,,,,,,,,,,,,,,,
4,,choice,,html-keyboard-response,4,49588,0.0-1.0-2.0-0.0-0.0,0,0,97341,,1263.0,,,75.0,0.0,0.0,1500.0,1000.0,1.0,0.0,0.0,20-80,,0.0,bagel,dumbbell,20.0,80.0,bagel1,dumbbell1,0.0,80.0,bagels_pumpernickel_large.jpg,31B64EN68AL._AA280_.jpg,/static/Category_learning/Stimuli/Practice_stims/bagel/bagels_pumpernickel_large.jpg,/static/Category_learning/Stimuli/Practice_stims/dumbbell/31B64EN68AL._AA280_.jpg,0.0,dumbbell,bagel,80.0,20.0,dumbbell1,bagel1,80.0,0.0,0.0,1.263,1.263,,,,,,
5,,confirmation,,html-keyboard-response,5,49831,0.0-1.0-2.0-0.0-1.0-0.0,0,0,97341,,,,,,0.0,,,,,,,,,,,,,,,,,,,,,,,,,,,,,,,,1.5,0.237,,,,,,
6,,isi,,html-keyboard-response,6,49937,0.0-1.0-2.0-0.0-2.0,0,0,97341,,,,,,,,,,,,,,,,,,,,,,,,,,,,,,,,,,,,,,3.0,1.5,,,,,,
7,,feedback,,html-keyboard-response,7,50945,0.0-1.0-2.0-0.0-3.0-0.0,0,0,97341,,,,,,0.0,,,,,,,,,,,,,,,,,,,,,,,,,,,,,,,,4.0,1.0,,,,,,
8,,iti,,html-keyboard-response,8,51052,0.0-1.0-2.0-0.0-5.0,0,0,97341,,,,,,,,,,,,,,,,,,,,,,,,,,,,,,,,,,,,,,5.0,1.0,,,,,,
9,,choice,,html-keyboard-response,9,51795,0.0-1.0-3.0-0.0-0.0,0,0,97341,,740.0,,,68.0,1.0,1.0,3000.0,1500.0,1.0,0.0,0.0,20-40,,1.0,calculator,bagel,40.0,20.0,calculator2,bagel2,20.0,20.0,22829064.thl.jpg,bagels_cinnraisin_large.jpg,/static/Category_learning/Stimuli/Practice_stims/calculator/22829064.thl.jpg,/static/Category_learning/Stimuli/Practice_stims/bagel/bagels_cinnraisin_large.jpg,1.0,calculator,bagel,40.0,20.0,calculator2,bagel2,20.0,20.0,0.0,5.74,0.74,,,,,,
10,,confirmation,,html-keyboard-response,10,52561,0.0-1.0-3.0-0.0-1.0-0.0,0,0,97341,,,,,,1.0,,,,,,,,,,,,,,,,,,,,,,,,,,,,,,,,6.5,0.76,,,,,,
11,,isi,,html-keyboard-response,11,52667,0.0-1.0-3.0-0.0-2.0,0,0,97341,,,,,,,,,,,,,,,,,,,,,,,,,,,,,,,,,,,,,,9.5,3.0,,,,,,
12,,feedback,,html-keyboard-response,12,53675,0.0-1.0-3.0-0.0-3.0-0.0,0,0,97341,,,,,,1.0,,,,,,,,,,,,,,,,,,,,,,,,,,,,,,,,10.5,1.0,,,,,,
13,,iti,,html-keyboard-response,13,53782,0.0-1.0-3.0-0.0-5.0,0,0,97341,,,,,,,,,,,,,,,,,,,,,,,,,,,,,,,,,,,,,,12.0,1.5,,,,,,
14,,choice,,html-keyboard-response,14,55159,0.0-1.0-4.0-0.0-0.0,0,0,97341,,1373.0,,,75.0,2.0,2.0,2000.0,3000.0,1.0,0.0,0.0,60-80,,0.0,clock,dumbbell,60.0,80.0,clock2,dumbbell2,60.0,100.0,26373355.thl.jpg,31K8MR6TMBL._SS500_.jpg,/static/Category_learning/Stimuli/Practice_stims/clock/26373355.thl.jpg,/static/Category_learning/Stimuli/Practice_stims/dumbbell/31K8MR6TMBL._SS500_.jpg,0.0,dumbbell,clock,80.0,60.0,dumbbell2,clock2,100.0,60.0,0.0,13.373,1.373,,,,,,
15,,confirmation,,html-keyboard-response,15,55291,0.0-1.0-4.0-0.0-1.0-0.0,0,0,97341,,,,,,2.0,,,,,,,,,,,,,,,,,,,,,,,,,,,,,,,,13.5,0.127,,,,,,
16,,isi,,html-keyboard-response,16,55398,0.0-1.0-4.0-0.0-2.0,0,0,97341,,,,,,,,,,,,,,,,,,,,,,,,,,,,,,,,,,,,,,15.5,2.0,,,,,,
17,,feedback,,html-keyboard-response,17,56402,0.0-1.0-4.0-0.0-3.0-0.0,0,0,97341,,,,,,2.0,,,,,,,,,,,,,,,,,,,,,,,,,,,,,,,,16.5,1.0,,,,,,
18,,iti,,html-keyboard-response,18,56507,0.0-1.0-4.0-0.0-5.0,0,0,97341,,,,,,,,,,,,,,,,,,,,,,,,,,,,,,,,,,,,,,19.5,3.0,,,,,,
19,,choice,,html-keyboard-response,19,58012,0.0-1.0-5.0-0.0-0.0,0,0,97341,,,,,,3.0,3.0,1000.0,2000.0,1.0,0.0,0.0,40-80,,0.0,calculator,clock,40.0,60.0,calculator1,clock1,40.0,40.0,22829184.thl.jpg,Aalarmclock2.jpg,/static/Category_learning/Stimuli/Practice_stims/calculator/22829184.thl.jpg,/static/Category_learning/Stimuli/Practice_stims/clock/Aalarmclock2.jpg,,,,,,,,,,1.0,21.0,1.5,,,,,,
20,,isi,,html-keyboard-response,20,58118,0.0-1.0-5.0-0.0-2.0,0,0,97341,,,,,,,,,,,,,,,,,,,,,,,,,,,,,,,,,,,,,,22.0,1.0,,,,,,
21,,no_response,,html-keyboard-response,21,59126,0.0-1.0-5.0-0.0-4.0-0.0,0,0,97341,,,,,,,,,,,,,,,,,,,,,,,,,,,,,,,,,,,,,,23.0,1.0,,,,,,
22,,iti,,html-keyboard-response,22,59233,0.0-1.0-5.0-0.0-5.0,0,0,97341,,,,,,,,,,,,,,,,,,,,,,,,,,,,,,,,,,,,,,25.0,2.0,,,,,,
23,,choice,,html-keyboard-response,23,60740,0.0-1.0-5.0-0.1-0.1,0,0,97341,,,,,,3.0,3.0,1000.0,2000.0,1.0,0.0,0.0,40-80,,0.0,calculator,clock,40.0,60.0,calculator1,clock1,40.0,40.0,22829184.thl.jpg,Aalarmclock2.jpg,/static/Category_learning/Stimuli/Practice_stims/calculator/22829184.thl.jpg,/static/Category_learning/Stimuli/Practice_stims/clock/Aalarmclock2.jpg,,,,,,,,,,1.0,26.5,1.5,,,,,,
24,,isi,,html-keyboard-response,24,60846,0.0-1.0-5.0-0.1-2.1,0,0,97341,,,,,,,,,,,,,,,,,,,,,,,,,,,,,,,,,,,,,,27.5,1.0,,,,,,
25,,no_response,,html-keyboard-response,25,61852,0.0-1.0-5.0-0.1-4.1-0.1,0,0,97341,,,,,,,,,,,,,,,,,,,,,,,,,,,,,,,,,,,,,,28.5,1.0,,,,,,
26,,iti,,html-keyboard-response,26,61958,0.0-1.0-5.0-0.1-5.1,0,0,97341,,,,,,,,,,,,,,,,,,,,,,,,,,,,,,,,,,,,,,30.5,2.0,,,,,,
27,,choice,,html-keyboard-response,27,63464,0.0-1.0-5.0-0.2-0.2,0,0,97341,,,,,,3.0,3.0,1000.0,2000.0,1.0,0.0,0.0,40-80,,0.0,calculator,clock,40.0,60.0,calculator1,clock1,40.0,40.0,22829184.thl.jpg,Aalarmclock2.jpg,/static/Category_learning/Stimuli/Practice_stims/calculator/22829184.thl.jpg,/static/Category_learning/Stimuli/Practice_stims/clock/Aalarmclock2.jpg,,,,,,,,,,1.0,32.0,1.5,,,,,,
28,,isi,,html-keyboard-response,28,63570,0.0-1.0-5.0-0.2-2.2,0,0,97341,,,,,,,,,,,,,,,,,,,,,,,,,,,,,,,,,,,,,,33.0,1.0,,,,,,
29,,no_response,,html-keyboard-response,29,64577,0.0-1.0-5.0-0.2-4.2-0.2,0,0,97341,,,,,,,,,,,,,,,,,,,,,,,,,,,,,,,,,,,,,,34.0,1.0,,,,,,
30,,iti,,html-keyboard-response,30,64684,0.0-1.0-5.0-0.2-5.2,0,0,97341,,,,,,,,,,,,,,,,,,,,,,,,,,,,,,,,,,,,,,36.0,2.0,,,,,,
31,,choice,,html-keyboard-response,31,66188,0.0-1.0-5.0-0.3-0.3,0,0,97341,,,,,,3.0,3.0,1000.0,2000.0,1.0,0.0,0.0,40-80,,0.0,calculator,clock,40.0,60.0,calculator1,clock1,40.0,40.0,22829184.thl.jpg,Aalarmclock2.jpg,/static/Category_learning/Stimuli/Practice_stims/calculator/22829184.thl.jpg,/static/Category_learning/Stimuli/Practice_stims/clock/Aalarmclock2.jpg,,,,,,,,,,1.0,37.5,1.5,,,,,,
32,,isi,,html-keyboard-response,32,66294,0.0-1.0-5.0-0.3-2.3,0,0,97341,,,,,,,,,,,,,,,,,,,,,,,,,,,,,,,,,,,,,,38.5,1.0,,,,,,
33,,no_response,,html-keyboard-response,33,67297,0.0-1.0-5.0-0.3-4.3-0.3,0,0,97341,,,,,,,,,,,,,,,,,,,,,,,,,,,,,,,,,,,,,,39.5,1.0,,,,,,
34,,iti,,html-keyboard-response,34,67404,0.0-1.0-5.0-0.3-5.3,0,0,97341,,,,,,,,,,,,,,,,,,,,,,,,,,,,,,,,,,,,,,41.5,2.0,,,,,,
35,,choice,,html-keyboard-response,35,68908,0.0-1.0-5.0-0.4-0.4,0,0,97341,,,,,,3.0,3.0,1000.0,2000.0,1.0,0.0,0.0,40-80,,0.0,calculator,clock,40.0,60.0,calculator1,clock1,40.0,40.0,22829184.thl.jpg,Aalarmclock2.jpg,/static/Category_learning/Stimuli/Practice_stims/calculator/22829184.thl.jpg,/static/Category_learning/Stimuli/Practice_stims/clock/Aalarmclock2.jpg,,,,,,,,,,1.0,43.0,1.5,,,,,,
36,,isi,,html-keyboard-response,36,69014,0.0-1.0-5.0-0.4-2.4,0,0,97341,,,,,,,,,,,,,,,,,,,,,,,,,,,,,,,,,,,,,,44.0,1.0,,,,,,
37,,no_response,,html-keyboard-response,37,70022,0.0-1.0-5.0-0.4-4.4-0.4,0,0,97341,,,,,,,,,,,,,,,,,,,,,,,,,,,,,,,,,,,,,,45.0,1.0,,,,,,
38,,iti,,html-keyboard-response,38,70129,0.0-1.0-5.0-0.4-5.4,0,0,97341,,,,,,,,,,,,,,,,,,,,,,,,,,,,,,,,,,,,,,47.0,2.0,,,,,,
39,,choice,,html-keyboard-response,39,71636,0.0-1.0-5.0-0.5-0.5,0,0,97341,,,,,,3.0,3.0,1000.0,2000.0,1.0,0.0,0.0,40-80,,0.0,calculator,clock,40.0,60.0,calculator1,clock1,40.0,40.0,22829184.thl.jpg,Aalarmclock2.jpg,/static/Category_learning/Stimuli/Practice_stims/calculator/22829184.thl.jpg,/static/Category_learning/Stimuli/Practice_stims/clock/Aalarmclock2.jpg,,,,,,,,,,1.0,48.5,1.5,,,,,,
40,,isi,,html-keyboard-response,40,71740,0.0-1.0-5.0-0.5-2.5,0,0,97341,,,,,,,,,,,,,,,,,,,,,,,,,,,,,,,,,,,,,,49.5,1.0,,,,,,
41,,no_response,,html-keyboard-response,41,72745,0.0-1.0-5.0-0.5-4.5-0.5,0,0,97341,,,,,,,,,,,,,,,,,,,,,,,,,,,,,,,,,,,,,,50.5,1.0,,,,,,
42,,iti,,html-keyboard-response,42,72852,0.0-1.0-5.0-0.5-5.5,0,0,97341,,,,,,,,,,,,,,,,,,,,,,,,,,,,,,,,,,,,,,52.5,2.0,,,,,,
43,,choice,,html-keyboard-response,43,74359,0.0-1.0-5.0-0.6-0.6,0,0,97341,,,,,,3.0,3.0,1000.0,2000.0,1.0,0.0,0.0,40-80,,0.0,calculator,clock,40.0,60.0,calculator1,clock1,40.0,40.0,22829184.thl.jpg,Aalarmclock2.jpg,/static/Category_learning/Stimuli/Practice_stims/calculator/22829184.thl.jpg,/static/Category_learning/Stimuli/Practice_stims/clock/Aalarmclock2.jpg,,,,,,,,,,1.0,54.0,1.5,,,,,,
44,,isi,,html-keyboard-response,44,74465,0.0-1.0-5.0-0.6-2.6,0,0,97341,,,,,,,,,,,,,,,,,,,,,,,,,,,,,,,,,,,,,,55.0,1.0,,,,,,
45,,no_response,,html-keyboard-response,45,75470,0.0-1.0-5.0-0.6-4.6-0.6,0,0,97341,,,,,,,,,,,,,,,,,,,,,,,,,,,,,,,,,,,,,,56.0,1.0,,,,,,
46,,iti,,html-keyboard-response,46,75574,0.0-1.0-5.0-0.6-5.6,0,0,97341,,,,,,,,,,,,,,,,,,,,,,,,,,,,,,,,,,,,,,58.0,2.0,,,,,,
47,,choice,,html-keyboard-response,47,77079,0.0-1.0-5.0-0.7-0.7,0,0,97341,,,,,,3.0,3.0,1000.0,2000.0,1.0,0.0,0.0,40-80,,0.0,calculator,clock,40.0,60.0,calculator1,clock1,40.0,40.0,22829184.thl.jpg,Aalarmclock2.jpg,/static/Category_learning/Stimuli/Practice_stims/calculator/22829184.thl.jpg,/static/Category_learning/Stimuli/Practice_stims/clock/Aalarmclock2.jpg,,,,,,,,,,1.0,59.5,1.5,,,,,,
48,,isi,,html-keyboard-response,48,77186,0.0-1.0-5.0-0.7-2.7,0,0,97341,,,,,,,,,,,,,,,,,,,,,,,,,,,,,,,,,,,,,,60.5,1.0,,,,,,
49,,no_response,,html-keyboard-response,49,78193,0.0-1.0-5.0-0.7-4.7-0.7,0,0,97341,,,,,,,,,,,,,,,,,,,,,,,,,,,,,,,,,,,,,,61.5,1.0,,,,,,
50,,iti,,html-keyboard-response,50,78299,0.0-1.0-5.0-0.7-5.7,0,0,97341,,,,,,,,,,,,,,,,,,,,,,,,,,,,,,,,,,,,,,63.5,2.0,,,,,,
51,,choice,,html-keyboard-response,51,79804,0.0-1.0-5.0-0.8-0.8,0,0,97341,,,,,,3.0,3.0,1000.0,2000.0,1.0,0.0,0.0,40-80,,0.0,calculator,clock,40.0,60.0,calculator1,clock1,40.0,40.0,22829184.thl.jpg,Aalarmclock2.jpg,/static/Category_learning/Stimuli/Practice_stims/calculator/22829184.thl.jpg,/static/Category_learning/Stimuli/Practice_stims/clock/Aalarmclock2.jpg,,,,,,,,,,1.0,65.0,1.5,,,,,,
52,,isi,,html-keyboard-response,52,79910,0.0-1.0-5.0-0.8-2.8,0,0,97341,,,,,,,,,,,,,,,,,,,,,,,,,,,,,,,,,,,,,,66.0,1.0,,,,,,
53,,no_response,,html-keyboard-response,53,80916,0.0-1.0-5.0-0.8-4.8-0.8,0,0,97341,,,,,,,,,,,,,,,,,,,,,,,,,,,,,,,,,,,,,,67.0,1.0,,,,,,
54,,iti,,html-keyboard-response,54,81023,0.0-1.0-5.0-0.8-5.8,0,0,97341,,,,,,,,,,,,,,,,,,,,,,,,,,,,,,,,,,,,,,69.0,2.0,,,,,,
55,,choice,,html-keyboard-response,55,82529,0.0-1.0-5.0-0.9-0.9,0,0,97341,,,,,,3.0,3.0,1000.0,2000.0,1.0,0.0,0.0,40-80,,0.0,calculator,clock,40.0,60.0,calculator1,clock1,40.0,40.0,22829184.thl.jpg,Aalarmclock2.jpg,/static/Category_learning/Stimuli/Practice_stims/calculator/22829184.thl.jpg,/static/Category_learning/Stimuli/Practice_stims/clock/Aalarmclock2.jpg,,,,,,,,,,1.0,70.5,1.5,,,,,,
56,,isi,,html-keyboard-response,56,82636,0.0-1.0-5.0-0.9-2.9,0,0,97341,,,,,,,,,,,,,,,,,,,,,,,,,,,,,,,,,,,,,,71.5,1.0,,,,,,
57,,no_response,,html-keyboard-response,57,83639,0.0-1.0-5.0-0.9-4.9-0.9,0,0,97341,,,,,,,,,,,,,,,,,,,,,,,,,,,,,,,,,,,,,,72.5,1.0,,,,,,
58,,iti,,html-keyboard-response,58,83746,0.0-1.0-5.0-0.9-5.9,0,0,97341,,,,,,,,,,,,,,,,,,,,,,,,,,,,,,,,,,,,,,74.5,2.0,,,,,,
59,,choice,,html-keyboard-response,59,85254,0.0-1.0-5.0-0.10-0.10,0,0,97341,,,,,,3.0,3.0,1000.0,2000.0,1.0,0.0,0.0,40-80,,0.0,calculator,clock,40.0,60.0,calculator1,clock1,40.0,40.0,22829184.thl.jpg,Aalarmclock2.jpg,/static/Category_learning/Stimuli/Practice_stims/calculator/22829184.thl.jpg,/static/Category_learning/Stimuli/Practice_stims/clock/Aalarmclock2.jpg,,,,,,,,,,1.0,76.0,1.5,,,,,,
60,,isi,,html-keyboard-response,60,85361,0.0-1.0-5.0-0.10-2.10,0,0,97341,,,,,,,,,,,,,,,,,,,,,,,,,,,,,,,,,,,,,,77.0,1.0,,,,,,
61,,no_response,,html-keyboard-response,61,86366,0.0-1.0-5.0-0.10-4.10-0.10,0,0,97341,,,,,,,,,,,,,,,,,,,,,,,,,,,,,,,,,,,,,,78.0,1.0,,,,,,
62,,iti,,html-keyboard-response,62,86474,0.0-1.0-5.0-0.10-5.10,0,0,97341,,,,,,,,,,,,,,,,,,,,,,,,,,,,,,,,,,,,,,80.0,2.0,,,,,,
63,,choice,,html-keyboard-response,63,87980,0.0-1.0-5.0-0.11-0.11,0,0,97341,,,,,,3.0,3.0,1000.0,2000.0,1.0,0.0,0.0,40-80,,0.0,calculator,clock,40.0,60.0,calculator1,clock1,40.0,40.0,22829184.thl.jpg,Aalarmclock2.jpg,/static/Category_learning/Stimuli/Practice_stims/calculator/22829184.thl.jpg,/static/Category_learning/Stimuli/Practice_stims/clock/Aalarmclock2.jpg,,,,,,,,,,1.0,81.5,1.5,,,,,,
64,,isi,,html-keyboard-response,64,88086,0.0-1.0-5.0-0.11-2.11,0,0,97341,,,,,,,,,,,,,,,,,,,,,,,,,,,,,,,,,,,,,,82.5,1.0,,,,,,
65,,no_response,,html-keyboard-response,65,89093,0.0-1.0-5.0-0.11-4.11-0.11,0,0,97341,,,,,,,,,,,,,,,,,,,,,,,,,,,,,,,,,,,,,,83.5,1.0,,,,,,
66,,iti,,html-keyboard-response,66,89196,0.0-1.0-5.0-0.11-5.11,0,0,97341,,,,,,,,,,,,,,,,,,,,,,,,,,,,,,,,,,,,,,85.5,2.0,,,,,,
67,,choice,,html-keyboard-response,67,90702,0.0-1.0-5.0-0.12-0.12,0,0,97341,,,,,,3.0,3.0,1000.0,2000.0,1.0,0.0,0.0,40-80,,0.0,calculator,clock,40.0,60.0,calculator1,clock1,40.0,40.0,22829184.thl.jpg,Aalarmclock2.jpg,/static/Category_learning/Stimuli/Practice_stims/calculator/22829184.thl.jpg,/static/Category_learning/Stimuli/Practice_stims/clock/Aalarmclock2.jpg,,,,,,,,,,1.0,87.0,1.5,,,,,,
68,,isi,,html-keyboard-response,68,90806,0.0-1.0-5.0-0.12-2.12,0,0,97341,,,,,,,,,,,,,,,,,,,,,,,,,,,,,,,,,,,,,,88.0,1.0,,,,,,
69,,no_response,,html-keyboard-response,69,91809,0.0-1.0-5.0-0.12-4.12-0.12,0,0,97341,,,,,,,,,,,,,,,,,,,,,,,,,,,,,,,,,,,,,,89.0,1.0,,,,,,
70,,iti,,html-keyboard-response,70,91916,0.0-1.0-5.0-0.12-5.12,0,0,97341,,,,,,,,,,,,,,,,,,,,,,,,,,,,,,,,,,,,,,91.0,2.0,,,,,,
71,,choice,,html-keyboard-response,71,93419,0.0-1.0-5.0-0.13-0.13,0,0,97341,,,,,,3.0,3.0,1000.0,2000.0,1.0,0.0,0.0,40-80,,0.0,calculator,clock,40.0,60.0,calculator1,clock1,40.0,40.0,22829184.thl.jpg,Aalarmclock2.jpg,/static/Category_learning/Stimuli/Practice_stims/calculator/22829184.thl.jpg,/static/Category_learning/Stimuli/Practice_stims/clock/Aalarmclock2.jpg,,,,,,,,,,1.0,92.5,1.5,,,,,,
72,,isi,,html-keyboard-response,72,93527,0.0-1.0-5.0-0.13-2.13,0,0,97341,,,,,,,,,,,,,,,,,,,,,,,,,,,,,,,,,,,,,,93.5,1.0,,,,,,
73,,no_response,,html-keyboard-response,73,94530,0.0-1.0-5.0-0.13-4.13-0.13,0,0,97341,,,,,,,,,,,,,,,,,,,,,,,,,,,,,,,,,,,,,,94.5,1.0,,,,,,
74,,iti,,html-keyboard-response,74,94636,0.0-1.0-5.0-0.13-5.13,0,0,97341,,,,,,,,,,,,,,,,,,,,,,,,,,,,,,,,,,,,,,96.5,2.0,,,,,,
75,,choice,,html-keyboard-response,75,96141,0.0-1.0-5.0-0.14-0.14,0,0,97341,,,,,,3.0,3.0,1000.0,2000.0,1.0,0.0,0.0,40-80,,0.0,calculator,clock,40.0,60.0,calculator1,clock1,40.0,40.0,22829184.thl.jpg,Aalarmclock2.jpg,/static/Category_learning/Stimuli/Practice_stims/calculator/22829184.thl.jpg,/static/Category_learning/Stimuli/Practice_stims/clock/Aalarmclock2.jpg,,,,,,,,,,1.0,98.0,1.5,,,,,,
76,,isi,,html-keyboard-response,76,96246,0.0-1.0-5.0-0.14-2.14,0,0,97341,,,,,,,,,,,,,,,,,,,,,,,,,,,,,,,,,,,,,,99.0,1.0,,,,,,
77,,no_response,,html-keyboard-response,77,97253,0.0-1.0-5.0-0.14-4.14-0.14,0,0,97341,,,,,,,,,,,,,,,,,,,,,,,,,,,,,,,,,,,,,,100.0,1.0,,,,,,
78,,iti,,html-keyboard-response,78,97357,0.0-1.0-5.0-0.14-5.14,0,0,97341,,,,,,,,,,,,,,,,,,,,,,,,,,,,,,,,,,,,,,102.0,2.0,,,,,,
79,,choice,,html-keyboard-response,79,98865,0.0-1.0-5.0-0.15-0.15,0,0,97341,,,,,,3.0,3.0,1000.0,2000.0,1.0,0.0,0.0,40-80,,0.0,calculator,clock,40.0,60.0,calculator1,clock1,40.0,40.0,22829184.thl.jpg,Aalarmclock2.jpg,/static/Category_learning/Stimuli/Practice_stims/calculator/22829184.thl.jpg,/static/Category_learning/Stimuli/Practice_stims/clock/Aalarmclock2.jpg,,,,,,,,,,1.0,103.5,1.5,,,,,,
80,,isi,,html-keyboard-response,80,98972,0.0-1.0-5.0-0.15-2.15,0,0,97341,,,,,,,,,,,,,,,,,,,,,,,,,,,,,,,,,,,,,,104.5,1.0,,,,,,
81,,no_response,,html-keyboard-response,81,99977,0.0-1.0-5.0-0.15-4.15-0.15,0,0,97341,,,,,,,,,,,,,,,,,,,,,,,,,,,,,,,,,,,,,,105.5,1.0,,,,,,
82,,iti,,html-keyboard-response,82,100082,0.0-1.0-5.0-0.15-5.15,0,0,97341,,,,,,,,,,,,,,,,,,,,,,,,,,,,,,,,,,,,,,107.5,2.0,,,,,,
83,,choice,,html-keyboard-response,83,101586,0.0-1.0-5.0-0.16-0.16,0,0,97341,,,,,,3.0,3.0,1000.0,2000.0,1.0,0.0,0.0,40-80,,0.0,calculator,clock,40.0,60.0,calculator1,clock1,40.0,40.0,22829184.thl.jpg,Aalarmclock2.jpg,/static/Category_learning/Stimuli/Practice_stims/calculator/22829184.thl.jpg,/static/Category_learning/Stimuli/Practice_stims/clock/Aalarmclock2.jpg,,,,,,,,,,1.0,109.0,1.5,,,,,,
84,,isi,,html-keyboard-response,84,101692,0.0-1.0-5.0-0.16-2.16,0,0,97341,,,,,,,,,,,,,,,,,,,,,,,,,,,,,,,,,,,,,,110.0,1.0,,,,,,
85,,no_response,,html-keyboard-response,85,102699,0.0-1.0-5.0-0.16-4.16-0.16,0,0,97341,,,,,,,,,,,,,,,,,,,,,,,,,,,,,,,,,,,,,,111.0,1.0,,,,,,
86,,iti,,html-keyboard-response,86,102805,0.0-1.0-5.0-0.16-5.16,0,0,97341,,,,,,,,,,,,,,,,,,,,,,,,,,,,,,,,,,,,,,113.0,2.0,,,,,,
87,,choice,,html-keyboard-response,87,104311,0.0-1.0-5.0-0.17-0.17,0,0,97341,,,,,,3.0,3.0,1000.0,2000.0,1.0,0.0,0.0,40-80,,0.0,calculator,clock,40.0,60.0,calculator1,clock1,40.0,40.0,22829184.thl.jpg,Aalarmclock2.jpg,/static/Category_learning/Stimuli/Practice_stims/calculator/22829184.thl.jpg,/static/Category_learning/Stimuli/Practice_stims/clock/Aalarmclock2.jpg,,,,,,,,,,1.0,114.5,1.5,,,,,,
88,,isi,,html-keyboard-response,88,104417,0.0-1.0-5.0-0.17-2.17,0,0,97341,,,,,,,,,,,,,,,,,,,,,,,,,,,,,,,,,,,,,,115.5,1.0,,,,,,
89,,no_response,,html-keyboard-response,89,105421,0.0-1.0-5.0-0.17-4.17-0.17,0,0,97341,,,,,,,,,,,,,,,,,,,,,,,,,,,,,,,,,,,,,,116.5,1.0,,,,,,
90,,iti,,html-keyboard-response,90,105527,0.0-1.0-5.0-0.17-5.17,0,0,97341,,,,,,,,,,,,,,,,,,,,,,,,,,,,,,,,,,,,,,118.5,2.0,,,,,,
91,,choice,,html-keyboard-response,91,107030,0.0-1.0-5.0-0.18-0.18,0,0,97341,,,,,,3.0,3.0,1000.0,2000.0,1.0,0.0,0.0,40-80,,0.0,calculator,clock,40.0,60.0,calculator1,clock1,40.0,40.0,22829184.thl.jpg,Aalarmclock2.jpg,/static/Category_learning/Stimuli/Practice_stims/calculator/22829184.thl.jpg,/static/Category_learning/Stimuli/Practice_stims/clock/Aalarmclock2.jpg,,,,,,,,,,1.0,120.0,1.5,,,,,,
92,,isi,,html-keyboard-response,92,107137,0.0-1.0-5.0-0.18-2.18,0,0,97341,,,,,,,,,,,,,,,,,,,,,,,,,,,,,,,,,,,,,,121.0,1.0,,,,,,
93,,no_response,,html-keyboard-response,93,108140,0.0-1.0-5.0-0.18-4.18-0.18,0,0,97341,,,,,,,,,,,,,,,,,,,,,,,,,,,,,,,,,,,,,,122.0,1.0,,,,,,
94,,iti,,html-keyboard-response,94,108247,0.0-1.0-5.0-0.18-5.18,0,0,97341,,,,,,,,,,,,,,,,,,,,,,,,,,,,,,,,,,,,,,124.0,2.0,,,,,,
95,,choice,,html-keyboard-response,95,109753,0.0-1.0-5.0-0.19-0.19,0,0,97341,,,,,,3.0,3.0,1000.0,2000.0,1.0,0.0,0.0,40-80,,0.0,calculator,clock,40.0,60.0,calculator1,clock1,40.0,40.0,22829184.thl.jpg,Aalarmclock2.jpg,/static/Category_learning/Stimuli/Practice_stims/calculator/22829184.thl.jpg,/static/Category_learning/Stimuli/Practice_stims/clock/Aalarmclock2.jpg,,,,,,,,,,1.0,125.5,1.5,,,,,,
96,,isi,,html-keyboard-response,96,109858,0.0-1.0-5.0-0.19-2.19,0,0,97341,,,,,,,,,,,,,,,,,,,,,,,,,,,,,,,,,,,,,,126.5,1.0,,,,,,
97,,no_response,,html-keyboard-response,97,110863,0.0-1.0-5.0-0.19-4.19-0.19,0,0,97341,,,,,,,,,,,,,,,,,,,,,,,,,,,,,,,,,,,,,,127.5,1.0,,,,,,
98,,iti,,html-keyboard-response,98,110969,0.0-1.0-5.0-0.19-5.19,0,0,97341,,,,,,,,,,,,,,,,,,,,,,,,,,,,,,,,,,,,,,129.5,2.0,,,,,,
99,,choice,,html-keyboard-response,99,112476,0.0-1.0-5.0-0.20-0.20,0,0,97341,,,,,,3.0,3.0,1000.0,2000.0,1.0,0.0,0.0,40-80,,0.0,calculator,clock,40.0,60.0,calculator1,clock1,40.0,40.0,22829184.thl.jpg,Aalarmclock2.jpg,/static/Category_learning/Stimuli/Practice_stims/calculator/22829184.thl.jpg,/static/Category_learning/Stimuli/Practice_stims/clock/Aalarmclock2.jpg,,,,,,,,,,1.0,131.0,1.5,,,,,,
100,,isi,,html-keyboard-response,100,112582,0.0-1.0-5.0-0.20-2.20,0,0,97341,,,,,,,,,,,,,,,,,,,,,,,,,,,,,,,,,,,,,,132.0,1.0,,,,,,
101,,no_response,,html-keyboard-response,101,113586,0.0-1.0-5.0-0.20-4.20-0.20,0,0,97341,,,,,,,,,,,,,,,,,,,,,,,,,,,,,,,,,,,,,,133.0,1.0,,,,,,
102,,iti,,html-keyboard-response,102,113692,0.0-1.0-5.0-0.20-5.20,0,0,97341,,,,,,,,,,,,,,,,,,,,,,,,,,,,,,,,,,,,,,135.0,2.0,,,,,,
103,,choice,,html-keyboard-response,103,115197,0.0-1.0-5.0-0.21-0.21,0,0,97341,,,,,,3.0,3.0,1000.0,2000.0,1.0,0.0,0.0,40-80,,0.0,calculator,clock,40.0,60.0,calculator1,clock1,40.0,40.0,22829184.thl.jpg,Aalarmclock2.jpg,/static/Category_learning/Stimuli/Practice_stims/calculator/22829184.thl.jpg,/static/Category_learning/Stimuli/Practice_stims/clock/Aalarmclock2.jpg,,,,,,,,,,1.0,136.5,1.5,,,,,,
104,,isi,,html-keyboard-response,104,115303,0.0-1.0-5.0-0.21-2.21,0,0,97341,,,,,,,,,,,,,,,,,,,,,,,,,,,,,,,,,,,,,,137.5,1.0,,,,,,
105,,no_response,,html-keyboard-response,105,116309,0.0-1.0-5.0-0.21-4.21-0.21,0,0,97341,,,,,,,,,,,,,,,,,,,,,,,,,,,,,,,,,,,,,,138.5,1.0,,,,,,
106,,iti,,html-keyboard-response,106,116414,0.0-1.0-5.0-0.21-5.21,0,0,97341,,,,,,,,,,,,,,,,,,,,,,,,,,,,,,,,,,,,,,140.5,2.0,,,,,,
107,,choice,,html-keyboard-response,107,117922,0.0-1.0-5.0-0.22-0.22,0,0,97341,,,,,,3.0,3.0,1000.0,2000.0,1.0,0.0,0.0,40-80,,0.0,calculator,clock,40.0,60.0,calculator1,clock1,40.0,40.0,22829184.thl.jpg,Aalarmclock2.jpg,/static/Category_learning/Stimuli/Practice_stims/calculator/22829184.thl.jpg,/static/Category_learning/Stimuli/Practice_stims/clock/Aalarmclock2.jpg,,,,,,,,,,1.0,142.0,1.5,,,,,,
108,,isi,,html-keyboard-response,108,118028,0.0-1.0-5.0-0.22-2.22,0,0,97341,,,,,,,,,,,,,,,,,,,,,,,,,,,,,,,,,,,,,,143.0,1.0,,,,,,
109,,no_response,,html-keyboard-response,109,119033,0.0-1.0-5.0-0.22-4.22-0.22,0,0,97341,,,,,,,,,,,,,,,,,,,,,,,,,,,,,,,,,,,,,,144.0,1.0,,,,,,
110,,iti,,html-keyboard-response,110,119140,0.0-1.0-5.0-0.22-5.22,0,0,97341,,,,,,,,,,,,,,,,,,,,,,,,,,,,,,,,,,,,,,146.0,2.0,,,,,,
111,,choice,,html-keyboard-response,111,120647,0.0-1.0-5.0-0.23-0.23,0,0,97341,,,,,,3.0,3.0,1000.0,2000.0,1.0,0.0,0.0,40-80,,0.0,calculator,clock,40.0,60.0,calculator1,clock1,40.0,40.0,22829184.thl.jpg,Aalarmclock2.jpg,/static/Category_learning/Stimuli/Practice_stims/calculator/22829184.thl.jpg,/static/Category_learning/Stimuli/Practice_stims/clock/Aalarmclock2.jpg,,,,,,,,,,1.0,147.5,1.5,,,,,,
112,,isi,,html-keyboard-response,112,120753,0.0-1.0-5.0-0.23-2.23,0,0,97341,,,,,,,,,,,,,,,,,,,,,,,,,,,,,,,,,,,,,,148.5,1.0,,,,,,
113,,no_response,,html-keyboard-response,113,121757,0.0-1.0-5.0-0.23-4.23-0.23,0,0,97341,,,,,,,,,,,,,,,,,,,,,,,,,,,,,,,,,,,,,,149.5,1.0,,,,,,
114,,iti,,html-keyboard-response,114,121863,0.0-1.0-5.0-0.23-5.23,0,0,97341,,,,,,,,,,,,,,,,,,,,,,,,,,,,,,,,,,,,,,151.5,2.0,,,,,,
115,,choice,,html-keyboard-response,115,123370,0.0-1.0-5.0-0.24-0.24,0,0,97341,,,,,,3.0,3.0,1000.0,2000.0,1.0,0.0,0.0,40-80,,0.0,calculator,clock,40.0,60.0,calculator1,clock1,40.0,40.0,22829184.thl.jpg,Aalarmclock2.jpg,/static/Category_learning/Stimuli/Practice_stims/calculator/22829184.thl.jpg,/static/Category_learning/Stimuli/Practice_stims/clock/Aalarmclock2.jpg,,,,,,,,,,1.0,153.0,1.5,,,,,,
116,,isi,,html-keyboard-response,116,123473,0.0-1.0-5.0-0.24-2.24,0,0,97341,,,,,,,,,,,,,,,,,,,,,,,,,,,,,,,,,,,,,,154.0,1.0,,,,,,
117,,no_response,,html-keyboard-response,117,124476,0.0-1.0-5.0-0.24-4.24-0.24,0,0,97341,,,,,,,,,,,,,,,,,,,,,,,,,,,,,,,,,,,,,,155.0,1.0,,,,,,
118,,iti,,html-keyboard-response,118,124583,0.0-1.0-5.0-0.24-5.24,0,0,97341,,,,,,,,,,,,,,,,,,,,,,,,,,,,,,,,,,,,,,157.0,2.0,,,,,,
119,,choice,,html-keyboard-response,119,126087,0.0-1.0-5.0-0.25-0.25,0,0,97341,,,,,,3.0,3.0,1000.0,2000.0,1.0,0.0,0.0,40-80,,0.0,calculator,clock,40.0,60.0,calculator1,clock1,40.0,40.0,22829184.thl.jpg,Aalarmclock2.jpg,/static/Category_learning/Stimuli/Practice_stims/calculator/22829184.thl.jpg,/static/Category_learning/Stimuli/Practice_stims/clock/Aalarmclock2.jpg,,,,,,,,,,1.0,158.5,1.5,,,,,,
120,,isi,,html-keyboard-response,120,126194,0.0-1.0-5.0-0.25-2.25,0,0,97341,,,,,,,,,,,,,,,,,,,,,,,,,,,,,,,,,,,,,,159.5,1.0,,,,,,
121,,no_response,,html-keyboard-response,121,127196,0.0-1.0-5.0-0.25-4.25-0.25,0,0,97341,,,,,,,,,,,,,,,,,,,,,,,,,,,,,,,,,,,,,,160.5,1.0,,,,,,
122,,iti,,html-keyboard-response,122,127303,0.0-1.0-5.0-0.25-5.25,0,0,97341,,,,,,,,,,,,,,,,,,,,,,,,,,,,,,,,,,,,,,162.5,2.0,,,,,,
123,,choice,,html-keyboard-response,123,128807,0.0-1.0-5.0-0.26-0.26,0,0,97341,,,,,,3.0,3.0,1000.0,2000.0,1.0,0.0,0.0,40-80,,0.0,calculator,clock,40.0,60.0,calculator1,clock1,40.0,40.0,22829184.thl.jpg,Aalarmclock2.jpg,/static/Category_learning/Stimuli/Practice_stims/calculator/22829184.thl.jpg,/static/Category_learning/Stimuli/Practice_stims/clock/Aalarmclock2.jpg,,,,,,,,,,1.0,164.0,1.5,,,,,,
124,,isi,,html-keyboard-response,124,128914,0.0-1.0-5.0-0.26-2.26,0,0,97341,,,,,,,,,,,,,,,,,,,,,,,,,,,,,,,,,,,,,,165.0,1.0,,,,,,
125,,no_response,,html-keyboard-response,125,129921,0.0-1.0-5.0-0.26-4.26-0.26,0,0,97341,,,,,,,,,,,,,,,,,,,,,,,,,,,,,,,,,,,,,,166.0,1.0,,,,,,
126,,iti,,html-keyboard-response,126,130029,0.0-1.0-5.0-0.26-5.26,0,0,97341,,,,,,,,,,,,,,,,,,,,,,,,,,,,,,,,,,,,,,168.0,2.0,,,,,,
127,,choice,,html-keyboard-response,127,131536,0.0-1.0-5.0-0.27-0.27,0,0,97341,,,,,,3.0,3.0,1000.0,2000.0,1.0,0.0,0.0,40-80,,0.0,calculator,clock,40.0,60.0,calculator1,clock1,40.0,40.0,22829184.thl.jpg,Aalarmclock2.jpg,/static/Category_learning/Stimuli/Practice_stims/calculator/22829184.thl.jpg,/static/Category_learning/Stimuli/Practice_stims/clock/Aalarmclock2.jpg,,,,,,,,,,1.0,169.5,1.5,,,,,,
128,,isi,,html-keyboard-response,128,131639,0.0-1.0-5.0-0.27-2.27,0,0,97341,,,,,,,,,,,,,,,,,,,,,,,,,,,,,,,,,,,,,,170.5,1.0,,,,,,
129,,no_response,,html-keyboard-response,129,132644,0.0-1.0-5.0-0.27-4.27-0.27,0,0,97341,,,,,,,,,,,,,,,,,,,,,,,,,,,,,,,,,,,,,,171.5,1.0,,,,,,
130,,iti,,html-keyboard-response,130,132749,0.0-1.0-5.0-0.27-5.27,0,0,97341,,,,,,,,,,,,,,,,,,,,,,,,,,,,,,,,,,,,,,173.5,2.0,,,,,,
131,,choice,,html-keyboard-response,131,134255,0.0-1.0-5.0-0.28-0.28,0,0,97341,,,,,,3.0,3.0,1000.0,2000.0,1.0,0.0,0.0,40-80,,0.0,calculator,clock,40.0,60.0,calculator1,clock1,40.0,40.0,22829184.thl.jpg,Aalarmclock2.jpg,/static/Category_learning/Stimuli/Practice_stims/calculator/22829184.thl.jpg,/static/Category_learning/Stimuli/Practice_stims/clock/Aalarmclock2.jpg,,,,,,,,,,1.0,175.0,1.5,,,,,,
132,,isi,,html-keyboard-response,132,134359,0.0-1.0-5.0-0.28-2.28,0,0,97341,,,,,,,,,,,,,,,,,,,,,,,,,,,,,,,,,,,,,,176.0,1.0,,,,,,
133,,no_response,,html-keyboard-response,133,135361,0.0-1.0-5.0-0.28-4.28-0.28,0,0,97341,,,,,,,,,,,,,,,,,,,,,,,,,,,,,,,,,,,,,,177.0,1.0,,,,,,
134,,iti,,html-keyboard-response,134,135466,0.0-1.0-5.0-0.28-5.28,0,0,97341,,,,,,,,,,,,,,,,,,,,,,,,,,,,,,,,,,,,,,179.0,2.0,,,,,,
135,,choice,,html-keyboard-response,135,136972,0.0-1.0-5.0-0.29-0.29,0,0,97341,,,,,,3.0,3.0,1000.0,2000.0,1.0,0.0,0.0,40-80,,0.0,calculator,clock,40.0,60.0,calculator1,clock1,40.0,40.0,22829184.thl.jpg,Aalarmclock2.jpg,/static/Category_learning/Stimuli/Practice_stims/calculator/22829184.thl.jpg,/static/Category_learning/Stimuli/Practice_stims/clock/Aalarmclock2.jpg,,,,,,,,,,1.0,180.5,1.5,,,,,,
136,,isi,,html-keyboard-response,136,137079,0.0-1.0-5.0-0.29-2.29,0,0,97341,,,,,,,,,,,,,,,,,,,,,,,,,,,,,,,,,,,,,,181.5,1.0,,,,,,
137,,no_response,,html-keyboard-response,137,138082,0.0-1.0-5.0-0.29-4.29-0.29,0,0,97341,,,,,,,,,,,,,,,,,,,,,,,,,,,,,,,,,,,,,,182.5,1.0,,,,,,
138,,iti,,html-keyboard-response,138,138189,0.0-1.0-5.0-0.29-5.29,0,0,97341,,,,,,,,,,,,,,,,,,,,,,,,,,,,,,,,,,,,,,184.5,2.0,,,,,,
139,,choice,,html-keyboard-response,139,138333,0.0-1.0-5.0-0.30-0.30,0,0,97341,,141.0,,,68.0,3.0,3.0,1000.0,2000.0,1.0,0.0,0.0,40-80,,0.0,calculator,clock,40.0,60.0,calculator1,clock1,40.0,40.0,22829184.thl.jpg,Aalarmclock2.jpg,/static/Category_learning/Stimuli/Practice_stims/calculator/22829184.thl.jpg,/static/Category_learning/Stimuli/Practice_stims/clock/Aalarmclock2.jpg,1.0,calculator,clock,40.0,60.0,calculator1,clock1,40.0,40.0,0.0,184.641,0.141,,,,,,
140,,confirmation,,html-keyboard-response,140,139697,0.0-1.0-5.0-0.30-1.30-0.30,0,0,97341,,,,,,3.0,,,,,,,,,,,,,,,,,,,,,,,,,,,,,,,,186.0,1.359,,,,,,
141,,isi,,html-keyboard-response,141,139803,0.0-1.0-5.0-0.30-2.30,0,0,97341,,,,,,,,,,,,,,,,,,,,,,,,,,,,,,,,,,,,,,187.0,1.0,,,,,,
142,,feedback,,html-keyboard-response,142,140807,0.0-1.0-5.0-0.30-3.30-0.30,0,0,97341,,,,,,3.0,,,,,,,,,,,,,,,,,,,,,,,,,,,,,,,,188.0,1.0,,,,,,
143,,iti,,html-keyboard-response,143,140914,0.0-1.0-5.0-0.30-5.30,0,0,97341,,,,,,,,,,,,,,,,,,,,,,,,,,,,,,,,,,,,,,190.0,2.0,,,,,,
144,,choice,,html-keyboard-response,144,140943,0.0-1.0-6.0-0.0-0.0,0,0,97341,,26.0,,,75.0,4.0,4.0,2500.0,2500.0,1.0,0.0,0.0,20-60,,1.0,dumbbell,bagel,80.0,20.0,dumbbell3,bagel3,100.0,40.0,41K7QVRX50L._SS500_.jpg,photo-169.jpg,/static/Category_learning/Stimuli/Practice_stims/dumbbell/41K7QVRX50L._SS500_.jpg,/static/Category_learning/Stimuli/Practice_stims/bagel/photo-169.jpg,0.0,bagel,dumbbell,20.0,80.0,bagel3,dumbbell3,40.0,100.0,0.0,190.026,0.026,1.0,,,,,
145,,confirmation,,html-keyboard-response,145,142423,0.0-1.0-6.0-0.0-1.0-0.0,0,0,97341,,,,,,4.0,,,,,,,,,,,,,,,,,,,,,,,,,,,,,,,,191.5,1.474,,,,,,
146,,isi,,html-keyboard-response,146,142530,0.0-1.0-6.0-0.0-2.0,0,0,97341,,,,,,,,,,,,,,,,,,,,,,,,,,,,,,,,,,,,,,194.0,2.5,,,,,,
147,,feedback,,html-keyboard-response,147,143538,0.0-1.0-6.0-0.0-3.0-0.0,0,0,97341,,,,,,4.0,,,,,,,,,,,,,,,,,,,,,,,,,,,,,,,,195.0,1.0,,,,,,
148,,iti,,html-keyboard-response,148,143644,0.0-1.0-6.0-0.0-5.0,0,0,97341,,,,,,,,,,,,,,,,,,,,,,,,,,,,,,,,,,,,,,197.5,2.5,,,,,,
149,,practice_over,,html-keyboard-response,149,144911,0.0-1.0-6.0-0.0-6.0-0.0,0,0,97341,,1264.0,,,68.0,4.0,,,,,,,,,,,,,,,,,,,,,,,,,,,,,,,,,,,,,,,
150,,start_run,,html-keyboard-response,150,145954,0.0-1.0-6.0-0.0-6.0-1.0,0,0,97341,,1041.0,,,84.0,,,,,,,,,,,,,,,,,,,,,,,,,,,,,,,,,,,,,,,,
151,,choice,,html-keyboard-response,151,146265,0.0-1.0-7.0-0.0-0.0,0,0,97341,,309.0,,,68.0,5.0,305.0,3500.0,1000.0,0.0,6.0,0.0,20-60,,1.0,key chain,vase,60.0,20.0,key chain5,vase14,40.0,0.0,keychain-metal-logo.jpg,Avase119.jpg,/static/Category_learning/Stimuli/Experimental_stims/key chain/keychain-metal-logo.jpg,/static/Category_learning/Stimuli/Experimental_stims/vase/Avase119.jpg,1.0,key chain,vase,60.0,20.0,key chain5,vase14,40.0,0.0,0.0,0.309,0.309,,,,,,
152,,confirmation,,html-keyboard-response,152,147463,0.0-1.0-7.0-0.0-1.0-0.0,0,0,97341,,,,,,5.0,,,,,,,,,,,,,,,,,,,,,,,,,,,,,,,,1.5,1.191,,,,,,
153,,isi,,html-keyboard-response,153,147570,0.0-1.0-7.0-0.0-2.0,0,0,97341,,,,,,,,,,,,,,,,,,,,,,,,,,,,,,,,,,,,,,5.0,3.5,,,,,,
154,,feedback,,html-keyboard-response,154,148578,0.0-1.0-7.0-0.0-3.0-0.0,0,0,97341,,,,,,5.0,,,,,,,,,,,,,,,,,,,,,,,,,,,,,,,,6.0,1.0,,,,,,
155,,iti,,html-keyboard-response,155,148685,0.0-1.0-7.0-0.0-5.0,0,0,97341,,,,,,,,,,,,,,,,,,,,,,,,,,,,,,,,,,,,,,7.0,1.0,,,,,,
156,,choice,,html-keyboard-response,156,149056,0.0-1.0-8.0-0.0-0.0,0,0,97341,,368.0,,,75.0,6.0,306.0,1000.0,3500.0,0.0,6.0,0.0,40-60,,0.0,door knob,license plate,40.0,60.0,door knob4,license plate1,40.0,80.0,chrome scroll latch handle.jpg,il-423-3784.jpg,/static/Category_learning/Stimuli/Experimental_stims/door knob/chrome scroll latch handle.jpg,/static/Category_learning/Stimuli/Experimental_stims/license plate/il-423-3784.jpg,0.0,license plate,door knob,60.0,40.0,license plate1,door knob4,80.0,40.0,0.0,7.368,0.368,,,,,,
157,,confirmation,,html-keyboard-response,157,150191,0.0-1.0-8.0-0.0-1.0-0.0,0,0,97341,,,,,,6.0,,,,,,,,,,,,,,,,,,,,,,,,,,,,,,,,8.5,1.132,,,,,,
158,,isi,,html-keyboard-response,158,150295,0.0-1.0-8.0-0.0-2.0,0,0,97341,,,,,,,,,,,,,,,,,,,,,,,,,,,,,,,,,,,,,,9.5,1.0,,,,,,
159,,feedback,,html-keyboard-response,159,151303,0.0-1.0-8.0-0.0-3.0-0.0,0,0,97341,,,,,,6.0,,,,,,,,,,,,,,,,,,,,,,,,,,,,,,,,10.5,1.0,,,,,,
160,,iti,,html-keyboard-response,160,151410,0.0-1.0-8.0-0.0-5.0,0,0,97341,,,,,,,,,,,,,,,,,,,,,,,,,,,,,,,,,,,,,,14.0,3.5,,,,,,
161,,choice,,html-keyboard-response,161,152914,0.0-1.0-9.0-0.0-0.0,0,0,97341,,,,,,7.0,307.0,1000.0,2000.0,0.0,6.0,0.0,40-80,,1.0,necklace,baby carriage,80.0,40.0,necklace5,baby carriage10,80.0,20.0,necklascenew08.jpg,peg_perego_uno_blu.jpg,/static/Category_learning/Stimuli/Experimental_stims/necklace/necklascenew08.jpg,/static/Category_learning/Stimuli/Experimental_stims/baby carriage/peg_perego_uno_blu.jpg,,,,,,,,,,1.0,15.5,1.5,,,,,,
162,,isi,,html-keyboard-response,162,153021,0.0-1.0-9.0-0.0-2.0,0,0,97341,,,,,,,,,,,,,,,,,,,,,,,,,,,,,,,,,,,,,,16.5,1.0,,,,,,
163,,no_response,,html-keyboard-response,163,154025,0.0-1.0-9.0-0.0-4.0-0.0,1,0,97341,,,,,,,,,,,,,,,,,,,,,,,,,,,,,,,,,,,,,,17.5,1.0,,,,,,
164,,iti,,html-keyboard-response,164,154146,0.0-1.0-9.0-0.0-5.0,0,0,97341,,,,,,,,,,,,,,,,,,,,,,,,,,,,,,,,,,,,,,19.5,2.0,,,,,,
165,,choice,,html-keyboard-response,165,155653,0.0-1.0-9.0-0.1-0.1,0,0,97341,,,,,,7.0,307.0,1000.0,2000.0,0.0,6.0,0.0,40-80,,1.0,necklace,baby carriage,80.0,40.0,necklace5,baby carriage10,80.0,20.0,necklascenew08.jpg,peg_perego_uno_blu.jpg,/static/Category_learning/Stimuli/Experimental_stims/necklace/necklascenew08.jpg,/static/Category_learning/Stimuli/Experimental_stims/baby carriage/peg_perego_uno_blu.jpg,,,,,,,,,,1.0,21.0,1.5,,,,,,
166,,isi,,html-keyboard-response,166,155757,0.0-1.0-9.0-0.1-2.1,0,0,97341,,,,,,,,,,,,,,,,,,,,,,,,,,,,,,,,,,,,,,23.0,2.0,,,,,,
167,,no_response,,html-keyboard-response,167,156760,0.0-1.0-9.0-0.1-4.1-0.1,1,0,97341,,,,,,,,,,,,,,,,,,,,,,,,,,,,,,,,,,,,,,24.0,1.0,,,,,,
168,,iti,,html-keyboard-response,168,156882,0.0-1.0-9.0-0.1-5.1,0,0,97341,,,,,,,,,,,,,,,,,,,,,,,,,,,,,,,,,,,,,,25.5,1.5,,,,,,
169,,choice,,html-keyboard-response,169,158387,0.0-1.0-9.0-0.2-0.2,0,0,97341,,,,,,7.0,307.0,1000.0,2000.0,0.0,6.0,0.0,40-80,,1.0,necklace,baby carriage,80.0,40.0,necklace5,baby carriage10,80.0,20.0,necklascenew08.jpg,peg_perego_uno_blu.jpg,/static/Category_learning/Stimuli/Experimental_stims/necklace/necklascenew08.jpg,/static/Category_learning/Stimuli/Experimental_stims/baby carriage/peg_perego_uno_blu.jpg,,,,,,,,,,1.0,27.0,1.5,,,,,,
170,,isi,,html-keyboard-response,170,158493,0.0-1.0-9.0-0.2-2.2,0,0,97341,,,,,,,,,,,,,,,,,,,,,,,,,,,,,,,,,,,,,,28.5,1.5,,,,,,
171,,no_response,,html-keyboard-response,171,159499,0.0-1.0-9.0-0.2-4.2-0.2,1,0,97341,,,,,,,,,,,,,,,,,,,,,,,,,,,,,,,,,,,,,,29.5,1.0,,,,,,
172,,iti,,html-keyboard-response,172,159620,0.0-1.0-9.0-0.2-5.2,0,0,97341,,,,,,,,,,,,,,,,,,,,,,,,,,,,,,,,,,,,,,31.5,2.0,,,,,,
173,,choice,,html-keyboard-response,173,161127,0.0-1.0-9.0-0.3-0.3,0,0,97341,,,,,,7.0,307.0,1000.0,2000.0,0.0,6.0,0.0,40-80,,1.0,necklace,baby carriage,80.0,40.0,necklace5,baby carriage10,80.0,20.0,necklascenew08.jpg,peg_perego_uno_blu.jpg,/static/Category_learning/Stimuli/Experimental_stims/necklace/necklascenew08.jpg,/static/Category_learning/Stimuli/Experimental_stims/baby carriage/peg_perego_uno_blu.jpg,,,,,,,,,,1.0,33.0,1.5,,,,,,
174,,isi,,html-keyboard-response,174,161234,0.0-1.0-9.0-0.3-2.3,0,0,97341,,,,,,,,,,,,,,,,,,,,,,,,,,,,,,,,,,,,,,34.0,1.0,,,,,,
175,,no_response,,html-keyboard-response,175,162240,0.0-1.0-9.0-0.3-4.3-0.3,1,0,97341,,,,,,,,,,,,,,,,,,,,,,,,,,,,,,,,,,,,,,35.0,1.0,,,,,,
176,,iti,,html-keyboard-response,176,162359,0.0-1.0-9.0-0.3-5.3,0,0,97341,,,,,,,,,,,,,,,,,,,,,,,,,,,,,,,,,,,,,,36.0,1.0,,,,,,
177,,choice,,html-keyboard-response,177,163864,0.0-1.0-9.0-0.4-0.4,0,0,97341,,,,,,7.0,307.0,1000.0,2000.0,0.0,6.0,0.0,40-80,,1.0,necklace,baby carriage,80.0,40.0,necklace5,baby carriage10,80.0,20.0,necklascenew08.jpg,peg_perego_uno_blu.jpg,/static/Category_learning/Stimuli/Experimental_stims/necklace/necklascenew08.jpg,/static/Category_learning/Stimuli/Experimental_stims/baby carriage/peg_perego_uno_blu.jpg,,,,,,,,,,1.0,37.5,1.5,,,,,,
178,,isi,,html-keyboard-response,178,163970,0.0-1.0-9.0-0.4-2.4,0,0,97341,,,,,,,,,,,,,,,,,,,,,,,,,,,,,,,,,,,,,,38.5,1.0,,,,,,
179,,no_response,,html-keyboard-response,179,164976,0.0-1.0-9.0-0.4-4.4-0.4,1,0,97341,,,,,,,,,,,,,,,,,,,,,,,,,,,,,,,,,,,,,,39.5,1.0,,,,,,
180,,iti,,html-keyboard-response,180,165096,0.0-1.0-9.0-0.4-5.4,0,0,97341,,,,,,,,,,,,,,,,,,,,,,,,,,,,,,,,,,,,,,41.0,1.5,,,,,,
181,,choice,,html-keyboard-response,181,166604,0.0-1.0-9.0-0.5-0.5,0,0,97341,,,,,,7.0,307.0,1000.0,2000.0,0.0,6.0,0.0,40-80,,1.0,necklace,baby carriage,80.0,40.0,necklace5,baby carriage10,80.0,20.0,necklascenew08.jpg,peg_perego_uno_blu.jpg,/static/Category_learning/Stimuli/Experimental_stims/necklace/necklascenew08.jpg,/static/Category_learning/Stimuli/Experimental_stims/baby carriage/peg_perego_uno_blu.jpg,,,,,,,,,,1.0,42.5,1.5,,,,,,
182,,isi,,html-keyboard-response,182,166708,0.0-1.0-9.0-0.5-2.5,0,0,97341,,,,,,,,,,,,,,,,,,,,,,,,,,,,,,,,,,,,,,44.5,2.0,,,,,,
183,,no_response,,html-keyboard-response,183,167714,0.0-1.0-9.0-0.5-4.5-0.5,1,0,97341,,,,,,,,,,,,,,,,,,,,,,,,,,,,,,,,,,,,,,45.5,1.0,,,,,,
184,,iti,,html-keyboard-response,184,167832,0.0-1.0-9.0-0.5-5.5,0,0,97341,,,,,,,,,,,,,,,,,,,,,,,,,,,,,,,,,,,,,,47.5,2.0,,,,,,
185,,choice,,html-keyboard-response,185,169337,0.0-1.0-9.0-0.6-0.6,0,0,97341,,,,,,7.0,307.0,1000.0,2000.0,0.0,6.0,0.0,40-80,,1.0,necklace,baby carriage,80.0,40.0,necklace5,baby carriage10,80.0,20.0,necklascenew08.jpg,peg_perego_uno_blu.jpg,/static/Category_learning/Stimuli/Experimental_stims/necklace/necklascenew08.jpg,/static/Category_learning/Stimuli/Experimental_stims/baby carriage/peg_perego_uno_blu.jpg,,,,,,,,,,1.0,49.0,1.5,,,,,,
186,,isi,,html-keyboard-response,186,169442,0.0-1.0-9.0-0.6-2.6,0,0,97341,,,,,,,,,,,,,,,,,,,,,,,,,,,,,,,,,,,,,,50.0,1.0,,,,,,
187,,no_response,,html-keyboard-response,187,170450,0.0-1.0-9.0-0.6-4.6-0.6,1,0,97341,,,,,,,,,,,,,,,,,,,,,,,,,,,,,,,,,,,,,,51.0,1.0,,,,,,
188,,iti,,html-keyboard-response,188,170568,0.0-1.0-9.0-0.6-5.6,0,0,97341,,,,,,,,,,,,,,,,,,,,,,,,,,,,,,,,,,,,,,52.0,1.0,,,,,,
189,,choice,,html-keyboard-response,189,172072,0.0-1.0-9.0-0.7-0.7,0,0,97341,,,,,,7.0,307.0,1000.0,2000.0,0.0,6.0,0.0,40-80,,1.0,necklace,baby carriage,80.0,40.0,necklace5,baby carriage10,80.0,20.0,necklascenew08.jpg,peg_perego_uno_blu.jpg,/static/Category_learning/Stimuli/Experimental_stims/necklace/necklascenew08.jpg,/static/Category_learning/Stimuli/Experimental_stims/baby carriage/peg_perego_uno_blu.jpg,,,,,,,,,,1.0,53.5,1.5,,,,,,
190,,isi,,html-keyboard-response,190,172178,0.0-1.0-9.0-0.7-2.7,0,0,97341,,,,,,,,,,,,,,,,,,,,,,,,,,,,,,,,,,,,,,55.0,1.5,,,,,,
191,,no_response,,html-keyboard-response,191,173185,0.0-1.0-9.0-0.7-4.7-0.7,1,0,97341,,,,,,,,,,,,,,,,,,,,,,,,,,,,,,,,,,,,,,56.0,1.0,,,,,,
192,,iti,,html-keyboard-response,192,173306,0.0-1.0-9.0-0.7-5.7,0,0,97341,,,,,,,,,,,,,,,,,,,,,,,,,,,,,,,,,,,,,,58.0,2.0,,,,,,
193,,choice,,html-keyboard-response,193,174813,0.0-1.0-9.0-0.8-0.8,0,0,97341,,,,,,7.0,307.0,1000.0,2000.0,0.0,6.0,0.0,40-80,,1.0,necklace,baby carriage,80.0,40.0,necklace5,baby carriage10,80.0,20.0,necklascenew08.jpg,peg_perego_uno_blu.jpg,/static/Category_learning/Stimuli/Experimental_stims/necklace/necklascenew08.jpg,/static/Category_learning/Stimuli/Experimental_stims/baby carriage/peg_perego_uno_blu.jpg,,,,,,,,,,1.0,59.5,1.5,,,,,,
194,,isi,,html-keyboard-response,194,174921,0.0-1.0-9.0-0.8-2.8,0,0,97341,,,,,,,,,,,,,,,,,,,,,,,,,,,,,,,,,,,,,,61.5,2.0,,,,,,
195,,no_response,,html-keyboard-response,195,175928,0.0-1.0-9.0-0.8-4.8-0.8,1,0,97341,,,,,,,,,,,,,,,,,,,,,,,,,,,,,,,,,,,,,,62.5,1.0,,,,,,
196,,iti,,html-keyboard-response,196,176045,0.0-1.0-9.0-0.8-5.8,0,0,97341,,,,,,,,,,,,,,,,,,,,,,,,,,,,,,,,,,,,,,63.5,1.0,,,,,,
197,,choice,,html-keyboard-response,197,177549,0.0-1.0-9.0-0.9-0.9,0,0,97341,,,,,,7.0,307.0,1000.0,2000.0,0.0,6.0,0.0,40-80,,1.0,necklace,baby carriage,80.0,40.0,necklace5,baby carriage10,80.0,20.0,necklascenew08.jpg,peg_perego_uno_blu.jpg,/static/Category_learning/Stimuli/Experimental_stims/necklace/necklascenew08.jpg,/static/Category_learning/Stimuli/Experimental_stims/baby carriage/peg_perego_uno_blu.jpg,,,,,,,,,,1.0,65.0,1.5,,,,,,
198,,isi,,html-keyboard-response,198,177656,0.0-1.0-9.0-0.9-2.9,0,0,97341,,,,,,,,,,,,,,,,,,,,,,,,,,,,,,,,,,,,,,66.5,1.5,,,,,,
199,,no_response,,html-keyboard-response,199,178662,0.0-1.0-9.0-0.9-4.9-0.9,1,0,97341,,,,,,,,,,,,,,,,,,,,,,,,,,,,,,,,,,,,,,67.5,1.0,,,,,,
200,,iti,,html-keyboard-response,200,178781,0.0-1.0-9.0-0.9-5.9,0,0,97341,,,,,,,,,,,,,,,,,,,,,,,,,,,,,,,,,,,,,,71.0,3.5,,,,,,
201,,choice,,html-keyboard-response,201,180287,0.0-1.0-9.0-0.10-0.10,0,0,97341,,,,,,7.0,307.0,1000.0,2000.0,0.0,6.0,0.0,40-80,,1.0,necklace,baby carriage,80.0,40.0,necklace5,baby carriage10,80.0,20.0,necklascenew08.jpg,peg_perego_uno_blu.jpg,/static/Category_learning/Stimuli/Experimental_stims/necklace/necklascenew08.jpg,/static/Category_learning/Stimuli/Experimental_stims/baby carriage/peg_perego_uno_blu.jpg,,,,,,,,,,1.0,72.5,1.5,,,,,,
202,,isi,,html-keyboard-response,202,180392,0.0-1.0-9.0-0.10-2.10,0,0,97341,,,,,,,,,,,,,,,,,,,,,,,,,,,,,,,,,,,,,,74.0,1.5,,,,,,
203,,no_response,,html-keyboard-response,203,181395,0.0-1.0-9.0-0.10-4.10-0.10,1,0,97341,,,,,,,,,,,,,,,,,,,,,,,,,,,,,,,,,,,,,,75.0,1.0,,,,,,
204,,iti,,html-keyboard-response,204,181512,0.0-1.0-9.0-0.10-5.10,0,0,97341,,,,,,,,,,,,,,,,,,,,,,,,,,,,,,,,,,,,,,77.0,2.0,,,,,,
205,,choice,,html-keyboard-response,205,183016,0.0-1.0-9.0-0.11-0.11,0,0,97341,,,,,,7.0,307.0,1000.0,2000.0,0.0,6.0,0.0,40-80,,1.0,necklace,baby carriage,80.0,40.0,necklace5,baby carriage10,80.0,20.0,necklascenew08.jpg,peg_perego_uno_blu.jpg,/static/Category_learning/Stimuli/Experimental_stims/necklace/necklascenew08.jpg,/static/Category_learning/Stimuli/Experimental_stims/baby carriage/peg_perego_uno_blu.jpg,,,,,,,,,,1.0,78.5,1.5,,,,,,
206,,isi,,html-keyboard-response,206,183123,0.0-1.0-9.0-0.11-2.11,0,0,97341,,,,,,,,,,,,,,,,,,,,,,,,,,,,,,,,,,,,,,79.5,1.0,,,,,,
207,,no_response,,html-keyboard-response,207,184128,0.0-1.0-9.0-0.11-4.11-0.11,1,0,97341,,,,,,,,,,,,,,,,,,,,,,,,,,,,,,,,,,,,,,80.5,1.0,,,,,,
208,,iti,,html-keyboard-response,208,184247,0.0-1.0-9.0-0.11-5.11,0,0,97341,,,,,,,,,,,,,,,,,,,,,,,,,,,,,,,,,,,,,,82.0,1.5,,,,,,
209,,choice,,html-keyboard-response,209,185754,0.0-1.0-9.0-0.12-0.12,0,0,97341,,,,,,7.0,307.0,1000.0,2000.0,0.0,6.0,0.0,40-80,,1.0,necklace,baby carriage,80.0,40.0,necklace5,baby carriage10,80.0,20.0,necklascenew08.jpg,peg_perego_uno_blu.jpg,/static/Category_learning/Stimuli/Experimental_stims/necklace/necklascenew08.jpg,/static/Category_learning/Stimuli/Experimental_stims/baby carriage/peg_perego_uno_blu.jpg,,,,,,,,,,1.0,83.5,1.5,,,,,,
210,,isi,,html-keyboard-response,210,185859,0.0-1.0-9.0-0.12-2.12,0,0,97341,,,,,,,,,,,,,,,,,,,,,,,,,,,,,,,,,,,,,,84.5,1.0,,,,,,
211,,no_response,,html-keyboard-response,211,186864,0.0-1.0-9.0-0.12-4.12-0.12,1,0,97341,,,,,,,,,,,,,,,,,,,,,,,,,,,,,,,,,,,,,,85.5,1.0,,,,,,
212,,iti,,html-keyboard-response,212,186984,0.0-1.0-9.0-0.12-5.12,0,0,97341,,,,,,,,,,,,,,,,,,,,,,,,,,,,,,,,,,,,,,87.0,1.5,,,,,,
213,,choice,,html-keyboard-response,213,188491,0.0-1.0-9.0-0.13-0.13,0,0,97341,,,,,,7.0,307.0,1000.0,2000.0,0.0,6.0,0.0,40-80,,1.0,necklace,baby carriage,80.0,40.0,necklace5,baby carriage10,80.0,20.0,necklascenew08.jpg,peg_perego_uno_blu.jpg,/static/Category_learning/Stimuli/Experimental_stims/necklace/necklascenew08.jpg,/static/Category_learning/Stimuli/Experimental_stims/baby carriage/peg_perego_uno_blu.jpg,,,,,,,,,,1.0,88.5,1.5,,,,,,
214,,isi,,html-keyboard-response,214,188595,0.0-1.0-9.0-0.13-2.13,0,0,97341,,,,,,,,,,,,,,,,,,,,,,,,,,,,,,,,,,,,,,90.5,2.0,,,,,,
215,,no_response,,html-keyboard-response,215,189600,0.0-1.0-9.0-0.13-4.13-0.13,1,0,97341,,,,,,,,,,,,,,,,,,,,,,,,,,,,,,,,,,,,,,91.5,1.0,,,,,,
216,,iti,,html-keyboard-response,216,189721,0.0-1.0-9.0-0.13-5.13,0,0,97341,,,,,,,,,,,,,,,,,,,,,,,,,,,,,,,,,,,,,,92.5,1.0,,,,,,
217,,choice,,html-keyboard-response,217,191227,0.0-1.0-9.0-0.14-0.14,0,0,97341,,,,,,7.0,307.0,1000.0,2000.0,0.0,6.0,0.0,40-80,,1.0,necklace,baby carriage,80.0,40.0,necklace5,baby carriage10,80.0,20.0,necklascenew08.jpg,peg_perego_uno_blu.jpg,/static/Category_learning/Stimuli/Experimental_stims/necklace/necklascenew08.jpg,/static/Category_learning/Stimuli/Experimental_stims/baby carriage/peg_perego_uno_blu.jpg,,,,,,,,,,1.0,94.0,1.5,,,,,,
218,,isi,,html-keyboard-response,218,191331,0.0-1.0-9.0-0.14-2.14,0,0,97341,,,,,,,,,,,,,,,,,,,,,,,,,,,,,,,,,,,,,,95.0,1.0,,,,,,
219,,no_response,,html-keyboard-response,219,192338,0.0-1.0-9.0-0.14-4.14-0.14,1,0,97341,,,,,,,,,,,,,,,,,,,,,,,,,,,,,,,,,,,,,,96.0,1.0,,,,,,
220,,iti,,html-keyboard-response,220,192456,0.0-1.0-9.0-0.14-5.14,0,0,97341,,,,,,,,,,,,,,,,,,,,,,,,,,,,,,,,,,,,,,99.5,3.5,,,,,,
221,,choice,,html-keyboard-response,221,193960,0.0-1.0-9.0-0.15-0.15,0,0,97341,,,,,,7.0,307.0,1000.0,2000.0,0.0,6.0,0.0,40-80,,1.0,necklace,baby carriage,80.0,40.0,necklace5,baby carriage10,80.0,20.0,necklascenew08.jpg,peg_perego_uno_blu.jpg,/static/Category_learning/Stimuli/Experimental_stims/necklace/necklascenew08.jpg,/static/Category_learning/Stimuli/Experimental_stims/baby carriage/peg_perego_uno_blu.jpg,,,,,,,,,,1.0,101.0,1.5,,,,,,
222,,isi,,html-keyboard-response,222,194068,0.0-1.0-9.0-0.15-2.15,0,0,97341,,,,,,,,,,,,,,,,,,,,,,,,,,,,,,,,,,,,,,102.0,1.0,,,,,,
223,,no_response,,html-keyboard-response,223,195074,0.0-1.0-9.0-0.15-4.15-0.15,1,0,97341,,,,,,,,,,,,,,,,,,,,,,,,,,,,,,,,,,,,,,103.0,1.0,,,,,,
224,,iti,,html-keyboard-response,224,195195,0.0-1.0-9.0-0.15-5.15,0,0,97341,,,,,,,,,,,,,,,,,,,,,,,,,,,,,,,,,,,,,,104.0,1.0,,,,,,
225,,choice,,html-keyboard-response,225,196701,0.0-1.0-9.0-0.16-0.16,0,0,97341,,,,,,7.0,307.0,1000.0,2000.0,0.0,6.0,0.0,40-80,,1.0,necklace,baby carriage,80.0,40.0,necklace5,baby carriage10,80.0,20.0,necklascenew08.jpg,peg_perego_uno_blu.jpg,/static/Category_learning/Stimuli/Experimental_stims/necklace/necklascenew08.jpg,/static/Category_learning/Stimuli/Experimental_stims/baby carriage/peg_perego_uno_blu.jpg,,,,,,,,,,1.0,105.5,1.5,,,,,,
226,,isi,,html-keyboard-response,226,196808,0.0-1.0-9.0-0.16-2.16,0,0,97341,,,,,,,,,,,,,,,,,,,,,,,,,,,,,,,,,,,,,,106.5,1.0,,,,,,
227,,no_response,,html-keyboard-response,227,197816,0.0-1.0-9.0-0.16-4.16-0.16,1,0,97341,,,,,,,,,,,,,,,,,,,,,,,,,,,,,,,,,,,,,,107.5,1.0,,,,,,
228,,iti,,html-keyboard-response,228,197933,0.0-1.0-9.0-0.16-5.16,0,0,97341,,,,,,,,,,,,,,,,,,,,,,,,,,,,,,,,,,,,,,108.5,1.0,,,,,,
229,,choice,,html-keyboard-response,229,199438,0.0-1.0-9.0-0.17-0.17,0,0,97341,,,,,,7.0,307.0,1000.0,2000.0,0.0,6.0,0.0,40-80,,1.0,necklace,baby carriage,80.0,40.0,necklace5,baby carriage10,80.0,20.0,necklascenew08.jpg,peg_perego_uno_blu.jpg,/static/Category_learning/Stimuli/Experimental_stims/necklace/necklascenew08.jpg,/static/Category_learning/Stimuli/Experimental_stims/baby carriage/peg_perego_uno_blu.jpg,,,,,,,,,,1.0,110.0,1.5,,,,,,
230,,isi,,html-keyboard-response,230,199544,0.0-1.0-9.0-0.17-2.17,0,0,97341,,,,,,,,,,,,,,,,,,,,,,,,,,,,,,,,,,,,,,112.0,2.0,,,,,,
231,,no_response,,html-keyboard-response,231,200547,0.0-1.0-9.0-0.17-4.17-0.17,1,0,97341,,,,,,,,,,,,,,,,,,,,,,,,,,,,,,,,,,,,,,113.0,1.0,,,,,,
232,,iti,,html-keyboard-response,232,200664,0.0-1.0-9.0-0.17-5.17,0,0,97341,,,,,,,,,,,,,,,,,,,,,,,,,,,,,,,,,,,,,,114.5,1.5,,,,,,
233,,choice,,html-keyboard-response,233,202171,0.0-1.0-9.0-0.18-0.18,0,0,97341,,,,,,7.0,307.0,1000.0,2000.0,0.0,6.0,0.0,40-80,,1.0,necklace,baby carriage,80.0,40.0,necklace5,baby carriage10,80.0,20.0,necklascenew08.jpg,peg_perego_uno_blu.jpg,/static/Category_learning/Stimuli/Experimental_stims/necklace/necklascenew08.jpg,/static/Category_learning/Stimuli/Experimental_stims/baby carriage/peg_perego_uno_blu.jpg,,,,,,,,,,1.0,116.0,1.5,,,,,,
234,,isi,,html-keyboard-response,234,202277,0.0-1.0-9.0-0.18-2.18,0,0,97341,,,,,,,,,,,,,,,,,,,,,,,,,,,,,,,,,,,,,,117.5,1.5,,,,,,
235,,no_response,,html-keyboard-response,235,203283,0.0-1.0-9.0-0.18-4.18-0.18,1,0,97341,,,,,,,,,,,,,,,,,,,,,,,,,,,,,,,,,,,,,,118.5,1.0,,,,,,
236,,iti,,html-keyboard-response,236,203406,0.0-1.0-9.0-0.18-5.18,0,0,97341,,,,,,,,,,,,,,,,,,,,,,,,,,,,,,,,,,,,,,120.0,1.5,,,,,,
237,,choice,,html-keyboard-response,237,204910,0.0-1.0-9.0-0.19-0.19,0,0,97341,,,,,,7.0,307.0,1000.0,2000.0,0.0,6.0,0.0,40-80,,1.0,necklace,baby carriage,80.0,40.0,necklace5,baby carriage10,80.0,20.0,necklascenew08.jpg,peg_perego_uno_blu.jpg,/static/Category_learning/Stimuli/Experimental_stims/necklace/necklascenew08.jpg,/static/Category_learning/Stimuli/Experimental_stims/baby carriage/peg_perego_uno_blu.jpg,,,,,,,,,,1.0,121.5,1.5,,,,,,
238,,isi,,html-keyboard-response,238,205016,0.0-1.0-9.0-0.19-2.19,0,0,97341,,,,,,,,,,,,,,,,,,,,,,,,,,,,,,,,,,,,,,123.0,1.5,,,,,,
239,,no_response,,html-keyboard-response,239,206021,0.0-1.0-9.0-0.19-4.19-0.19,1,0,97341,,,,,,,,,,,,,,,,,,,,,,,,,,,,,,,,,,,,,,124.0,1.0,,,,,,
240,,iti,,html-keyboard-response,240,206141,0.0-1.0-9.0-0.19-5.19,0,0,97341,,,,,,,,,,,,,,,,,,,,,,,,,,,,,,,,,,,,,,125.0,1.0,,,,,,
241,,choice,,html-keyboard-response,241,207646,0.0-1.0-9.0-0.20-0.20,0,0,97341,,,,,,7.0,307.0,1000.0,2000.0,0.0,6.0,0.0,40-80,,1.0,necklace,baby carriage,80.0,40.0,necklace5,baby carriage10,80.0,20.0,necklascenew08.jpg,peg_perego_uno_blu.jpg,/static/Category_learning/Stimuli/Experimental_stims/necklace/necklascenew08.jpg,/static/Category_learning/Stimuli/Experimental_stims/baby carriage/peg_perego_uno_blu.jpg,,,,,,,,,,1.0,126.5,1.5,,,,,,
242,,isi,,html-keyboard-response,242,207752,0.0-1.0-9.0-0.20-2.20,0,0,97341,,,,,,,,,,,,,,,,,,,,,,,,,,,,,,,,,,,,,,128.5,2.0,,,,,,
243,,no_response,,html-keyboard-response,243,208755,0.0-1.0-9.0-0.20-4.20-0.20,1,0,97341,,,,,,,,,,,,,,,,,,,,,,,,,,,,,,,,,,,,,,129.5,1.0,,,,,,
244,,iti,,html-keyboard-response,244,208873,0.0-1.0-9.0-0.20-5.20,0,0,97341,,,,,,,,,,,,,,,,,,,,,,,,,,,,,,,,,,,,,,131.5,2.0,,,,,,
245,,choice,,html-keyboard-response,245,210376,0.0-1.0-9.0-0.21-0.21,0,0,97341,,,,,,7.0,307.0,1000.0,2000.0,0.0,6.0,0.0,40-80,,1.0,necklace,baby carriage,80.0,40.0,necklace5,baby carriage10,80.0,20.0,necklascenew08.jpg,peg_perego_uno_blu.jpg,/static/Category_learning/Stimuli/Experimental_stims/necklace/necklascenew08.jpg,/static/Category_learning/Stimuli/Experimental_stims/baby carriage/peg_perego_uno_blu.jpg,,,,,,,,,,1.0,133.0,1.5,,,,,,
246,,isi,,html-keyboard-response,246,210482,0.0-1.0-9.0-0.21-2.21,0,0,97341,,,,,,,,,,,,,,,,,,,,,,,,,,,,,,,,,,,,,,134.0,1.0,,,,,,
247,,no_response,,html-keyboard-response,247,211488,0.0-1.0-9.0-0.21-4.21-0.21,1,0,97341,,,,,,,,,,,,,,,,,,,,,,,,,,,,,,,,,,,,,,135.0,1.0,,,,,,
248,,iti,,html-keyboard-response,248,211605,0.0-1.0-9.0-0.21-5.21,0,0,97341,,,,,,,,,,,,,,,,,,,,,,,,,,,,,,,,,,,,,,136.5,1.5,,,,,,
249,,choice,,html-keyboard-response,249,213112,0.0-1.0-9.0-0.22-0.22,0,0,97341,,,,,,7.0,307.0,1000.0,2000.0,0.0,6.0,0.0,40-80,,1.0,necklace,baby carriage,80.0,40.0,necklace5,baby carriage10,80.0,20.0,necklascenew08.jpg,peg_perego_uno_blu.jpg,/static/Category_learning/Stimuli/Experimental_stims/necklace/necklascenew08.jpg,/static/Category_learning/Stimuli/Experimental_stims/baby carriage/peg_perego_uno_blu.jpg,,,,,,,,,,1.0,138.0,1.5,,,,,,
250,,isi,,html-keyboard-response,250,213219,0.0-1.0-9.0-0.22-2.22,0,0,97341,,,,,,,,,,,,,,,,,,,,,,,,,,,,,,,,,,,,,,139.0,1.0,,,,,,
251,,no_response,,html-keyboard-response,251,214225,0.0-1.0-9.0-0.22-4.22-0.22,1,0,97341,,,,,,,,,,,,,,,,,,,,,,,,,,,,,,,,,,,,,,140.0,1.0,,,,,,
252,,iti,,html-keyboard-response,252,214345,0.0-1.0-9.0-0.22-5.22,0,0,97341,,,,,,,,,,,,,,,,,,,,,,,,,,,,,,,,,,,,,,141.5,1.5,,,,,,
253,,choice,,html-keyboard-response,253,215850,0.0-1.0-9.0-0.23-0.23,0,0,97341,,,,,,7.0,307.0,1000.0,2000.0,0.0,6.0,0.0,40-80,,1.0,necklace,baby carriage,80.0,40.0,necklace5,baby carriage10,80.0,20.0,necklascenew08.jpg,peg_perego_uno_blu.jpg,/static/Category_learning/Stimuli/Experimental_stims/necklace/necklascenew08.jpg,/static/Category_learning/Stimuli/Experimental_stims/baby carriage/peg_perego_uno_blu.jpg,,,,,,,,,,1.0,143.0,1.5,,,,,,
254,,isi,,html-keyboard-response,254,215956,0.0-1.0-9.0-0.23-2.23,0,0,97341,,,,,,,,,,,,,,,,,,,,,,,,,,,,,,,,,,,,,,145.0,2.0,,,,,,
255,,no_response,,html-keyboard-response,255,216963,0.0-1.0-9.0-0.23-4.23-0.23,1,0,97341,,,,,,,,,,,,,,,,,,,,,,,,,,,,,,,,,,,,,,146.0,1.0,,,,,,
256,,iti,,html-keyboard-response,256,217084,0.0-1.0-9.0-0.23-5.23,0,0,97341,,,,,,,,,,,,,,,,,,,,,,,,,,,,,,,,,,,,,,147.0,1.0,,,,,,
257,,choice,,html-keyboard-response,257,218590,0.0-1.0-9.0-0.24-0.24,0,0,97341,,,,,,7.0,307.0,1000.0,2000.0,0.0,6.0,0.0,40-80,,1.0,necklace,baby carriage,80.0,40.0,necklace5,baby carriage10,80.0,20.0,necklascenew08.jpg,peg_perego_uno_blu.jpg,/static/Category_learning/Stimuli/Experimental_stims/necklace/necklascenew08.jpg,/static/Category_learning/Stimuli/Experimental_stims/baby carriage/peg_perego_uno_blu.jpg,,,,,,,,,,1.0,148.5,1.5,,,,,,
258,,isi,,html-keyboard-response,258,218696,0.0-1.0-9.0-0.24-2.24,0,0,97341,,,,,,,,,,,,,,,,,,,,,,,,,,,,,,,,,,,,,,149.5,1.0,,,,,,
259,,no_response,,html-keyboard-response,259,219702,0.0-1.0-9.0-0.24-4.24-0.24,1,0,97341,,,,,,,,,,,,,,,,,,,,,,,,,,,,,,,,,,,,,,150.5,1.0,,,,,,
260,,iti,,html-keyboard-response,260,219822,0.0-1.0-9.0-0.24-5.24,0,0,97341,,,,,,,,,,,,,,,,,,,,,,,,,,,,,,,,,,,,,,153.5,3.0,,,,,,
261,,choice,,html-keyboard-response,261,221326,0.0-1.0-9.0-0.25-0.25,0,0,97341,,,,,,7.0,307.0,1000.0,2000.0,0.0,6.0,0.0,40-80,,1.0,necklace,baby carriage,80.0,40.0,necklace5,baby carriage10,80.0,20.0,necklascenew08.jpg,peg_perego_uno_blu.jpg,/static/Category_learning/Stimuli/Experimental_stims/necklace/necklascenew08.jpg,/static/Category_learning/Stimuli/Experimental_stims/baby carriage/peg_perego_uno_blu.jpg,,,,,,,,,,1.0,155.0,1.5,,,,,,
262,,isi,,html-keyboard-response,262,221432,0.0-1.0-9.0-0.25-2.25,0,0,97341,,,,,,,,,,,,,,,,,,,,,,,,,,,,,,,,,,,,,,156.0,1.0,,,,,,
263,,no_response,,html-keyboard-response,263,222438,0.0-1.0-9.0-0.25-4.25-0.25,1,0,97341,,,,,,,,,,,,,,,,,,,,,,,,,,,,,,,,,,,,,,157.0,1.0,,,,,,
264,,iti,,html-keyboard-response,264,222558,0.0-1.0-9.0-0.25-5.25,0,0,97341,,,,,,,,,,,,,,,,,,,,,,,,,,,,,,,,,,,,,,158.5,1.5,,,,,,
265,,choice,,html-keyboard-response,265,224062,0.0-1.0-9.0-0.26-0.26,0,0,97341,,,,,,7.0,307.0,1000.0,2000.0,0.0,6.0,0.0,40-80,,1.0,necklace,baby carriage,80.0,40.0,necklace5,baby carriage10,80.0,20.0,necklascenew08.jpg,peg_perego_uno_blu.jpg,/static/Category_learning/Stimuli/Experimental_stims/necklace/necklascenew08.jpg,/static/Category_learning/Stimuli/Experimental_stims/baby carriage/peg_perego_uno_blu.jpg,,,,,,,,,,1.0,160.0,1.5,,,,,,
266,,isi,,html-keyboard-response,266,224168,0.0-1.0-9.0-0.26-2.26,0,0,97341,,,,,,,,,,,,,,,,,,,,,,,,,,,,,,,,,,,,,,161.5,1.5,,,,,,
267,,no_response,,html-keyboard-response,267,225174,0.0-1.0-9.0-0.26-4.26-0.26,1,0,97341,,,,,,,,,,,,,,,,,,,,,,,,,,,,,,,,,,,,,,162.5,1.0,,,,,,
268,,iti,,html-keyboard-response,268,225299,0.0-1.0-9.0-0.26-5.26,0,0,97341,,,,,,,,,,,,,,,,,,,,,,,,,,,,,,,,,,,,,,164.5,2.0,,,,,,
269,,choice,,html-keyboard-response,269,226805,0.0-1.0-9.0-0.27-0.27,0,0,97341,,,,,,7.0,307.0,1000.0,2000.0,0.0,6.0,0.0,40-80,,1.0,necklace,baby carriage,80.0,40.0,necklace5,baby carriage10,80.0,20.0,necklascenew08.jpg,peg_perego_uno_blu.jpg,/static/Category_learning/Stimuli/Experimental_stims/necklace/necklascenew08.jpg,/static/Category_learning/Stimuli/Experimental_stims/baby carriage/peg_perego_uno_blu.jpg,,,,,,,,,,1.0,166.0,1.5,,,,,,
270,,isi,,html-keyboard-response,270,226909,0.0-1.0-9.0-0.27-2.27,0,0,97341,,,,,,,,,,,,,,,,,,,,,,,,,,,,,,,,,,,,,,169.5,3.5,,,,,,
271,,no_response,,html-keyboard-response,271,227912,0.0-1.0-9.0-0.27-4.27-0.27,1,0,97341,,,,,,,,,,,,,,,,,,,,,,,,,,,,,,,,,,,,,,170.5,1.0,,,,,,
272,,iti,,html-keyboard-response,272,228035,0.0-1.0-9.0-0.27-5.27,0,0,97341,,,,,,,,,,,,,,,,,,,,,,,,,,,,,,,,,,,,,,172.5,2.0,,,,,,
273,,choice,,html-keyboard-response,273,229541,0.0-1.0-9.0-0.28-0.28,0,0,97341,,,,,,7.0,307.0,1000.0,2000.0,0.0,6.0,0.0,40-80,,1.0,necklace,baby carriage,80.0,40.0,necklace5,baby carriage10,80.0,20.0,necklascenew08.jpg,peg_perego_uno_blu.jpg,/static/Category_learning/Stimuli/Experimental_stims/necklace/necklascenew08.jpg,/static/Category_learning/Stimuli/Experimental_stims/baby carriage/peg_perego_uno_blu.jpg,,,,,,,,,,1.0,174.0,1.5,,,,,,
274,,isi,,html-keyboard-response,274,229646,0.0-1.0-9.0-0.28-2.28,0,0,97341,,,,,,,,,,,,,,,,,,,,,,,,,,,,,,,,,,,,,,175.0,1.0,,,,,,
275,,no_response,,html-keyboard-response,275,230648,0.0-1.0-9.0-0.28-4.28-0.28,1,0,97341,,,,,,,,,,,,,,,,,,,,,,,,,,,,,,,,,,,,,,176.0,1.0,,,,,,
276,,iti,,html-keyboard-response,276,230768,0.0-1.0-9.0-0.28-5.28,0,0,97341,,,,,,,,,,,,,,,,,,,,,,,,,,,,,,,,,,,,,,178.0,2.0,,,,,,
277,,choice,,html-keyboard-response,277,232275,0.0-1.0-9.0-0.29-0.29,0,0,97341,,,,,,7.0,307.0,1000.0,2000.0,0.0,6.0,0.0,40-80,,1.0,necklace,baby carriage,80.0,40.0,necklace5,baby carriage10,80.0,20.0,necklascenew08.jpg,peg_perego_uno_blu.jpg,/static/Category_learning/Stimuli/Experimental_stims/necklace/necklascenew08.jpg,/static/Category_learning/Stimuli/Experimental_stims/baby carriage/peg_perego_uno_blu.jpg,,,,,,,,,,1.0,179.5,1.5,,,,,,
278,,isi,,html-keyboard-response,278,232381,0.0-1.0-9.0-0.29-2.29,0,0,97341,,,,,,,,,,,,,,,,,,,,,,,,,,,,,,,,,,,,,,181.5,2.0,,,,,,
279,,no_response,,html-keyboard-response,279,233388,0.0-1.0-9.0-0.29-4.29-0.29,1,0,97341,,,,,,,,,,,,,,,,,,,,,,,,,,,,,,,,,,,,,,182.5,1.0,,,,,,
280,,iti,,html-keyboard-response,280,233505,0.0-1.0-9.0-0.29-5.29,0,0,97341,,,,,,,,,,,,,,,,,,,,,,,,,,,,,,,,,,,,,,184.0,1.5,,,,,,
281,,choice,,html-keyboard-response,281,235011,0.0-1.0-9.0-0.30-0.30,0,0,97341,,,,,,7.0,307.0,1000.0,2000.0,0.0,6.0,0.0,40-80,,1.0,necklace,baby carriage,80.0,40.0,necklace5,baby carriage10,80.0,20.0,necklascenew08.jpg,peg_perego_uno_blu.jpg,/static/Category_learning/Stimuli/Experimental_stims/necklace/necklascenew08.jpg,/static/Category_learning/Stimuli/Experimental_stims/baby carriage/peg_perego_uno_blu.jpg,,,,,,,,,,1.0,185.5,1.5,,,,,,
282,,isi,,html-keyboard-response,282,235117,0.0-1.0-9.0-0.30-2.30,0,0,97341,,,,,,,,,,,,,,,,,,,,,,,,,,,,,,,,,,,,,,187.0,1.5,,,,,,
283,,no_response,,html-keyboard-response,283,236123,0.0-1.0-9.0-0.30-4.30-0.30,1,0,97341,,,,,,,,,,,,,,,,,,,,,,,,,,,,,,,,,,,,,,188.0,1.0,,,,,,
284,,iti,,html-keyboard-response,284,236243,0.0-1.0-9.0-0.30-5.30,0,0,97341,,,,,,,,,,,,,,,,,,,,,,,,,,,,,,,,,,,,,,189.0,1.0,,,,,,
285,,choice,,html-keyboard-response,285,237747,0.0-1.0-9.0-0.31-0.31,0,0,97341,,,,,,7.0,307.0,1000.0,2000.0,0.0,6.0,0.0,40-80,,1.0,necklace,baby carriage,80.0,40.0,necklace5,baby carriage10,80.0,20.0,necklascenew08.jpg,peg_perego_uno_blu.jpg,/static/Category_learning/Stimuli/Experimental_stims/necklace/necklascenew08.jpg,/static/Category_learning/Stimuli/Experimental_stims/baby carriage/peg_perego_uno_blu.jpg,,,,,,,,,,1.0,190.5,1.5,,,,,,
286,,isi,,html-keyboard-response,286,237854,0.0-1.0-9.0-0.31-2.31,0,0,97341,,,,,,,,,,,,,,,,,,,,,,,,,,,,,,,,,,,,,,191.5,1.0,,,,,,
287,,no_response,,html-keyboard-response,287,238857,0.0-1.0-9.0-0.31-4.31-0.31,1,0,97341,,,,,,,,,,,,,,,,,,,,,,,,,,,,,,,,,,,,,,192.5,1.0,,,,,,
288,,iti,,html-keyboard-response,288,238974,0.0-1.0-9.0-0.31-5.31,0,0,97341,,,,,,,,,,,,,,,,,,,,,,,,,,,,,,,,,,,,,,195.5,3.0,,,,,,
289,,choice,,html-keyboard-response,289,240478,0.0-1.0-9.0-0.32-0.32,0,0,97341,,,,,,7.0,307.0,1000.0,2000.0,0.0,6.0,0.0,40-80,,1.0,necklace,baby carriage,80.0,40.0,necklace5,baby carriage10,80.0,20.0,necklascenew08.jpg,peg_perego_uno_blu.jpg,/static/Category_learning/Stimuli/Experimental_stims/necklace/necklascenew08.jpg,/static/Category_learning/Stimuli/Experimental_stims/baby carriage/peg_perego_uno_blu.jpg,,,,,,,,,,1.0,197.0,1.5,,,,,,
290,,isi,,html-keyboard-response,290,240585,0.0-1.0-9.0-0.32-2.32,0,0,97341,,,,,,,,,,,,,,,,,,,,,,,,,,,,,,,,,,,,,,198.0,1.0,,,,,,
291,,no_response,,html-keyboard-response,291,241589,0.0-1.0-9.0-0.32-4.32-0.32,1,0,97341,,,,,,,,,,,,,,,,,,,,,,,,,,,,,,,,,,,,,,199.0,1.0,,,,,,
292,,iti,,html-keyboard-response,292,241710,0.0-1.0-9.0-0.32-5.32,0,0,97341,,,,,,,,,,,,,,,,,,,,,,,,,,,,,,,,,,,,,,201.0,2.0,,,,,,
293,,choice,,html-keyboard-response,293,243214,0.0-1.0-9.0-0.33-0.33,0,0,97341,,,,,,7.0,307.0,1000.0,2000.0,0.0,6.0,0.0,40-80,,1.0,necklace,baby carriage,80.0,40.0,necklace5,baby carriage10,80.0,20.0,necklascenew08.jpg,peg_perego_uno_blu.jpg,/static/Category_learning/Stimuli/Experimental_stims/necklace/necklascenew08.jpg,/static/Category_learning/Stimuli/Experimental_stims/baby carriage/peg_perego_uno_blu.jpg,,,,,,,,,,1.0,202.5,1.5,,,,,,
294,,isi,,html-keyboard-response,294,243322,0.0-1.0-9.0-0.33-2.33,0,0,97341,,,,,,,,,,,,,,,,,,,,,,,,,,,,,,,,,,,,,,204.0,1.5,,,,,,
295,,no_response,,html-keyboard-response,295,244329,0.0-1.0-9.0-0.33-4.33-0.33,1,0,97341,,,,,,,,,,,,,,,,,,,,,,,,,,,,,,,,,,,,,,205.0,1.0,,,,,,
296,,iti,,html-keyboard-response,296,244450,0.0-1.0-9.0-0.33-5.33,0,0,97341,,,,,,,,,,,,,,,,,,,,,,,,,,,,,,,,,,,,,,206.0,1.0,,,,,,
297,,choice,,html-keyboard-response,297,245957,0.0-1.0-9.0-0.34-0.34,0,0,97341,,,,,,7.0,307.0,1000.0,2000.0,0.0,6.0,0.0,40-80,,1.0,necklace,baby carriage,80.0,40.0,necklace5,baby carriage10,80.0,20.0,necklascenew08.jpg,peg_perego_uno_blu.jpg,/static/Category_learning/Stimuli/Experimental_stims/necklace/necklascenew08.jpg,/static/Category_learning/Stimuli/Experimental_stims/baby carriage/peg_perego_uno_blu.jpg,,,,,,,,,,1.0,207.5,1.5,,,,,,
298,,isi,,html-keyboard-response,298,246062,0.0-1.0-9.0-0.34-2.34,0,0,97341,,,,,,,,,,,,,,,,,,,,,,,,,,,,,,,,,,,,,,208.5,1.0,,,,,,
299,,no_response,,html-keyboard-response,299,247068,0.0-1.0-9.0-0.34-4.34-0.34,1,0,97341,,,,,,,,,,,,,,,,,,,,,,,,,,,,,,,,,,,,,,209.5,1.0,,,,,,
300,,iti,,html-keyboard-response,300,247189,0.0-1.0-9.0-0.34-5.34,0,0,97341,,,,,,,,,,,,,,,,,,,,,,,,,,,,,,,,,,,,,,213.0,3.5,,,,,,
301,,choice,,html-keyboard-response,301,248697,0.0-1.0-9.0-0.35-0.35,0,0,97341,,,,,,7.0,307.0,1000.0,2000.0,0.0,6.0,0.0,40-80,,1.0,necklace,baby carriage,80.0,40.0,necklace5,baby carriage10,80.0,20.0,necklascenew08.jpg,peg_perego_uno_blu.jpg,/static/Category_learning/Stimuli/Experimental_stims/necklace/necklascenew08.jpg,/static/Category_learning/Stimuli/Experimental_stims/baby carriage/peg_perego_uno_blu.jpg,,,,,,,,,,1.0,214.5,1.5,,,,,,
302,,isi,,html-keyboard-response,302,248803,0.0-1.0-9.0-0.35-2.35,0,0,97341,,,,,,,,,,,,,,,,,,,,,,,,,,,,,,,,,,,,,,216.0,1.5,,,,,,
303,,no_response,,html-keyboard-response,303,249806,0.0-1.0-9.0-0.35-4.35-0.35,1,0,97341,,,,,,,,,,,,,,,,,,,,,,,,,,,,,,,,,,,,,,217.0,1.0,,,,,,
304,,iti,,html-keyboard-response,304,249923,0.0-1.0-9.0-0.35-5.35,0,0,97341,,,,,,,,,,,,,,,,,,,,,,,,,,,,,,,,,,,,,,218.0,1.0,,,,,,
305,,choice,,html-keyboard-response,305,251428,0.0-1.0-9.0-0.36-0.36,0,0,97341,,,,,,7.0,307.0,1000.0,2000.0,0.0,6.0,0.0,40-80,,1.0,necklace,baby carriage,80.0,40.0,necklace5,baby carriage10,80.0,20.0,necklascenew08.jpg,peg_perego_uno_blu.jpg,/static/Category_learning/Stimuli/Experimental_stims/necklace/necklascenew08.jpg,/static/Category_learning/Stimuli/Experimental_stims/baby carriage/peg_perego_uno_blu.jpg,,,,,,,,,,1.0,219.5,1.5,,,,,,
306,,isi,,html-keyboard-response,306,251534,0.0-1.0-9.0-0.36-2.36,0,0,97341,,,,,,,,,,,,,,,,,,,,,,,,,,,,,,,,,,,,,,221.5,2.0,,,,,,
307,,no_response,,html-keyboard-response,307,252539,0.0-1.0-9.0-0.36-4.36-0.36,1,0,97341,,,,,,,,,,,,,,,,,,,,,,,,,,,,,,,,,,,,,,222.5,1.0,,,,,,
308,,iti,,html-keyboard-response,308,252656,0.0-1.0-9.0-0.36-5.36,0,0,97341,,,,,,,,,,,,,,,,,,,,,,,,,,,,,,,,,,,,,,223.5,1.0,,,,,,
309,,choice,,html-keyboard-response,309,253087,0.0-1.0-9.0-0.37-0.37,0,0,97341,,427.0,,,68.0,7.0,307.0,1000.0,2000.0,0.0,6.0,0.0,40-80,,1.0,necklace,baby carriage,80.0,40.0,necklace5,baby carriage10,80.0,20.0,necklascenew08.jpg,peg_perego_uno_blu.jpg,/static/Category_learning/Stimuli/Experimental_stims/necklace/necklascenew08.jpg,/static/Category_learning/Stimuli/Experimental_stims/baby carriage/peg_perego_uno_blu.jpg,1.0,necklace,baby carriage,80.0,40.0,necklace5,baby carriage10,80.0,20.0,0.0,223.927,0.427,,,,,,
310,,confirmation,,html-keyboard-response,310,254168,0.0-1.0-9.0-0.37-1.37-0.37,0,0,97341,,,,,,7.0,,,,,,,,,,,,,,,,,,,,,,,,,,,,,,,,225.0,1.073,,,,,,
311,,isi,,html-keyboard-response,311,254275,0.0-1.0-9.0-0.37-2.37,0,0,97341,,,,,,,,,,,,,,,,,,,,,,,,,,,,,,,,,,,,,,226.5,1.5,,,,,,
312,,feedback,,html-keyboard-response,312,255283,0.0-1.0-9.0-0.37-3.37-0.37,0,0,97341,,,,,,7.0,,,,,,,,,,,,,,,,,,,,,,,,,,,,,,,,227.5,1.0,,,,,,
313,,iti,,html-keyboard-response,313,255390,0.0-1.0-9.0-0.37-5.37,0,0,97341,,,,,,,,,,,,,,,,,,,,,,,,,,,,,,,,,,,,,,228.5,1.0,,,,,,
314,,choice,,html-keyboard-response,314,255789,0.0-1.0-10.0-0.0-0.0,0,0,97341,,396.0,,,68.0,8.0,308.0,1500.0,1500.0,0.0,6.0,0.0,20-80,,1.0,nail polish,trumpet,80.0,20.0,nail polish12,trumpet13,80.0,20.0,laquerdUP.jpg,JUPITER+JTR1600GS.jpg,/static/Category_learning/Stimuli/Experimental_stims/nail polish/laquerdUP.jpg,/static/Category_learning/Stimuli/Experimental_stims/trumpet/JUPITER+JTR1600GS.jpg,1.0,nail polish,trumpet,80.0,20.0,nail polish12,trumpet13,80.0,20.0,0.0,228.896,0.396,,,,,,
315,,confirmation,,html-keyboard-response,315,256899,0.0-1.0-10.0-0.0-1.0-0.0,0,0,97341,,,,,,8.0,,,,,,,,,,,,,,,,,,,,,,,,,,,,,,,,230.0,1.104,,,,,,
316,,isi,,html-keyboard-response,316,257006,0.0-1.0-10.0-0.0-2.0,0,0,97341,,,,,,,,,,,,,,,,,,,,,,,,,,,,,,,,,,,,,,231.5,1.5,,,,,,
317,,feedback,,html-keyboard-response,317,258009,0.0-1.0-10.0-0.0-3.0-0.0,0,0,97341,,,,,,8.0,,,,,,,,,,,,,,,,,,,,,,,,,,,,,,,,232.5,1.0,,,,,,
318,,iti,,html-keyboard-response,318,258116,0.0-1.0-10.0-0.0-5.0,0,0,97341,,,,,,,,,,,,,,,,,,,,,,,,,,,,,,,,,,,,,,234.0,1.5,,,,,,
319,,choice,,html-keyboard-response,319,259135,0.0-1.0-11.0-0.0-0.0,0,0,97341,,1017.0,,,75.0,9.0,309.0,1000.0,1000.0,0.0,6.0,0.0,20-80,,1.0,pen,train,80.0,20.0,pen1,train12,60.0,0.0,pen09.jpg,02565 ride on train.jpg,/static/Category_learning/Stimuli/Experimental_stims/pen/pen09.jpg,/static/Category_learning/Stimuli/Experimental_stims/train/02565 ride on train.jpg,0.0,train,pen,20.0,80.0,train12,pen1,0.0,60.0,0.0,235.017,1.017,,,,,,
320,,confirmation,,html-keyboard-response,320,259625,0.0-1.0-11.0-0.0-1.0-0.0,0,0,97341,,,,,,9.0,,,,,,,,,,,,,,,,,,,,,,,,,,,,,,,,235.5,0.483,,,,,,
321,,isi,,html-keyboard-response,321,259732,0.0-1.0-11.0-0.0-2.0,0,0,97341,,,,,,,,,,,,,,,,,,,,,,,,,,,,,,,,,,,,,,236.5,1.0,,,,,,
322,,feedback,,html-keyboard-response,322,260739,0.0-1.0-11.0-0.0-3.0-0.0,0,0,97341,,,,,,9.0,,,,,,,,,,,,,,,,,,,,,,,,,,,,,,,,237.5,1.0,,,,,,
323,,iti,,html-keyboard-response,323,260847,0.0-1.0-11.0-0.0-5.0,0,0,97341,,,,,,,,,,,,,,,,,,,,,,,,,,,,,,,,,,,,,,238.5,1.0,,,,,,
324,,choice,,html-keyboard-response,324,262171,0.0-1.0-12.0-0.0-0.0,0,0,97341,,1322.0,,,75.0,10.0,310.0,3000.0,1000.0,0.0,6.0,0.0,20-80,,0.0,watch,necklace,20.0,80.0,watch10,necklace11,0.0,100.0,HEU0102124_zoom.jpg,necklascenew06.jpg,/static/Category_learning/Stimuli/Experimental_stims/watch/HEU0102124_zoom.jpg,/static/Category_learning/Stimuli/Experimental_stims/necklace/necklascenew06.jpg,0.0,necklace,watch,80.0,20.0,necklace11,watch10,100.0,0.0,0.0,239.822,1.322,,,,,,
325,,confirmation,,html-keyboard-response,325,262356,0.0-1.0-12.0-0.0-1.0-0.0,0,0,97341,,,,,,10.0,,,,,,,,,,,,,,,,,,,,,,,,,,,,,,,,240.0,0.178,,,,,,
326,,isi,,html-keyboard-response,326,262460,0.0-1.0-12.0-0.0-2.0,0,0,97341,,,,,,,,,,,,,,,,,,,,,,,,,,,,,,,,,,,,,,243.0,3.0,,,,,,
327,,feedback,,html-keyboard-response,327,263465,0.0-1.0-12.0-0.0-3.0-0.0,0,0,97341,,,,,,10.0,,,,,,,,,,,,,,,,,,,,,,,,,,,,,,,,244.0,1.0,,,,,,
328,,iti,,html-keyboard-response,328,263573,0.0-1.0-12.0-0.0-5.0,0,0,97341,,,,,,,,,,,,,,,,,,,,,,,,,,,,,,,,,,,,,,245.0,1.0,,,,,,
329,,choice,,html-keyboard-response,329,265081,0.0-1.0-13.0-0.0-0.0,0,0,97341,,,,,,11.0,311.0,1000.0,1500.0,0.0,6.0,0.0,20-80,,0.0,stool,power strip,20.0,80.0,stool2,power strip15,40.0,100.0,ASTOOL46.jpg,31oz6aGZN7L._AA262_.jpg,/static/Category_learning/Stimuli/Experimental_stims/stool/ASTOOL46.jpg,/static/Category_learning/Stimuli/Experimental_stims/power strip/31oz6aGZN7L._AA262_.jpg,,,,,,,,,,1.0,246.5,1.5,,,,,,
330,,isi,,html-keyboard-response,330,265188,0.0-1.0-13.0-0.0-2.0,0,0,97341,,,,,,,,,,,,,,,,,,,,,,,,,,,,,,,,,,,,,,247.5,1.0,,,,,,
331,,no_response,,html-keyboard-response,331,266190,0.0-1.0-13.0-0.0-4.0-0.0,1,0,97341,,,,,,,,,,,,,,,,,,,,,,,,,,,,,,,,,,,,,,248.5,1.0,,,,,,
332,,iti,,html-keyboard-response,332,266319,0.0-1.0-13.0-0.0-5.0,0,0,97341,,,,,,,,,,,,,,,,,,,,,,,,,,,,,,,,,,,,,,250.0,1.5,,,,,,
333,,choice,,html-keyboard-response,333,267822,0.0-1.0-13.0-0.1-0.1,0,0,97341,,,,,,11.0,311.0,1000.0,1500.0,0.0,6.0,0.0,20-80,,0.0,stool,power strip,20.0,80.0,stool2,power strip15,40.0,100.0,ASTOOL46.jpg,31oz6aGZN7L._AA262_.jpg,/static/Category_learning/Stimuli/Experimental_stims/stool/ASTOOL46.jpg,/static/Category_learning/Stimuli/Experimental_stims/power strip/31oz6aGZN7L._AA262_.jpg,,,,,,,,,,1.0,251.5,1.5,,,,,,
334,,isi,,html-keyboard-response,334,267929,0.0-1.0-13.0-0.1-2.1,0,0,97341,,,,,,,,,,,,,,,,,,,,,,,,,,,,,,,,,,,,,,255.0,3.5,,,,,,
335,,no_response,,html-keyboard-response,335,268932,0.0-1.0-13.0-0.1-4.1-0.1,1,0,97341,,,,,,,,,,,,,,,,,,,,,,,,,,,,,,,,,,,,,,256.0,1.0,,,,,,
336,,iti,,html-keyboard-response,336,269049,0.0-1.0-13.0-0.1-5.1,0,0,97341,,,,,,,,,,,,,,,,,,,,,,,,,,,,,,,,,,,,,,257.5,1.5,,,,,,
337,,choice,,html-keyboard-response,337,270556,0.0-1.0-13.0-0.2-0.2,0,0,97341,,,,,,11.0,311.0,1000.0,1500.0,0.0,6.0,0.0,20-80,,0.0,stool,power strip,20.0,80.0,stool2,power strip15,40.0,100.0,ASTOOL46.jpg,31oz6aGZN7L._AA262_.jpg,/static/Category_learning/Stimuli/Experimental_stims/stool/ASTOOL46.jpg,/static/Category_learning/Stimuli/Experimental_stims/power strip/31oz6aGZN7L._AA262_.jpg,,,,,,,,,,1.0,259.0,1.5,,,,,,
338,,isi,,html-keyboard-response,338,270663,0.0-1.0-13.0-0.2-2.2,0,0,97341,,,,,,,,,,,,,,,,,,,,,,,,,,,,,,,,,,,,,,261.0,2.0,,,,,,
339,,no_response,,html-keyboard-response,339,271667,0.0-1.0-13.0-0.2-4.2-0.2,1,0,97341,,,,,,,,,,,,,,,,,,,,,,,,,,,,,,,,,,,,,,262.0,1.0,,,,,,
340,,iti,,html-keyboard-response,340,271790,0.0-1.0-13.0-0.2-5.2,0,0,97341,,,,,,,,,,,,,,,,,,,,,,,,,,,,,,,,,,,,,,264.0,2.0,,,,,,
341,,choice,,html-keyboard-response,341,273295,0.0-1.0-13.0-0.3-0.3,0,0,97341,,,,,,11.0,311.0,1000.0,1500.0,0.0,6.0,0.0,20-80,,0.0,stool,power strip,20.0,80.0,stool2,power strip15,40.0,100.0,ASTOOL46.jpg,31oz6aGZN7L._AA262_.jpg,/static/Category_learning/Stimuli/Experimental_stims/stool/ASTOOL46.jpg,/static/Category_learning/Stimuli/Experimental_stims/power strip/31oz6aGZN7L._AA262_.jpg,,,,,,,,,,1.0,265.5,1.5,,,,,,
342,,isi,,html-keyboard-response,342,273401,0.0-1.0-13.0-0.3-2.3,0,0,97341,,,,,,,,,,,,,,,,,,,,,,,,,,,,,,,,,,,,,,266.5,1.0,,,,,,
343,,no_response,,html-keyboard-response,343,274406,0.0-1.0-13.0-0.3-4.3-0.3,1,0,97341,,,,,,,,,,,,,,,,,,,,,,,,,,,,,,,,,,,,,,267.5,1.0,,,,,,
344,,iti,,html-keyboard-response,344,274523,0.0-1.0-13.0-0.3-5.3,0,0,97341,,,,,,,,,,,,,,,,,,,,,,,,,,,,,,,,,,,,,,269.5,2.0,,,,,,
345,,choice,,html-keyboard-response,345,276030,0.0-1.0-13.0-0.4-0.4,0,0,97341,,,,,,11.0,311.0,1000.0,1500.0,0.0,6.0,0.0,20-80,,0.0,stool,power strip,20.0,80.0,stool2,power strip15,40.0,100.0,ASTOOL46.jpg,31oz6aGZN7L._AA262_.jpg,/static/Category_learning/Stimuli/Experimental_stims/stool/ASTOOL46.jpg,/static/Category_learning/Stimuli/Experimental_stims/power strip/31oz6aGZN7L._AA262_.jpg,,,,,,,,,,1.0,271.0,1.5,,,,,,
346,,isi,,html-keyboard-response,346,276137,0.0-1.0-13.0-0.4-2.4,0,0,97341,,,,,,,,,,,,,,,,,,,,,,,,,,,,,,,,,,,,,,272.5,1.5,,,,,,
347,,no_response,,html-keyboard-response,347,277144,0.0-1.0-13.0-0.4-4.4-0.4,1,0,97341,,,,,,,,,,,,,,,,,,,,,,,,,,,,,,,,,,,,,,273.5,1.0,,,,,,
348,,iti,,html-keyboard-response,348,277262,0.0-1.0-13.0-0.4-5.4,0,0,97341,,,,,,,,,,,,,,,,,,,,,,,,,,,,,,,,,,,,,,275.5,2.0,,,,,,
349,,choice,,html-keyboard-response,349,278768,0.0-1.0-13.0-0.5-0.5,0,0,97341,,,,,,11.0,311.0,1000.0,1500.0,0.0,6.0,0.0,20-80,,0.0,stool,power strip,20.0,80.0,stool2,power strip15,40.0,100.0,ASTOOL46.jpg,31oz6aGZN7L._AA262_.jpg,/static/Category_learning/Stimuli/Experimental_stims/stool/ASTOOL46.jpg,/static/Category_learning/Stimuli/Experimental_stims/power strip/31oz6aGZN7L._AA262_.jpg,,,,,,,,,,1.0,277.0,1.5,,,,,,
350,,isi,,html-keyboard-response,350,278873,0.0-1.0-13.0-0.5-2.5,0,0,97341,,,,,,,,,,,,,,,,,,,,,,,,,,,,,,,,,,,,,,280.5,3.5,,,,,,
351,,no_response,,html-keyboard-response,351,279876,0.0-1.0-13.0-0.5-4.5-0.5,1,0,97341,,,,,,,,,,,,,,,,,,,,,,,,,,,,,,,,,,,,,,281.5,1.0,,,,,,
352,,iti,,html-keyboard-response,352,279993,0.0-1.0-13.0-0.5-5.5,0,0,97341,,,,,,,,,,,,,,,,,,,,,,,,,,,,,,,,,,,,,,282.5,1.0,,,,,,
353,,choice,,html-keyboard-response,353,281501,0.0-1.0-13.0-0.6-0.6,0,0,97341,,,,,,11.0,311.0,1000.0,1500.0,0.0,6.0,0.0,20-80,,0.0,stool,power strip,20.0,80.0,stool2,power strip15,40.0,100.0,ASTOOL46.jpg,31oz6aGZN7L._AA262_.jpg,/static/Category_learning/Stimuli/Experimental_stims/stool/ASTOOL46.jpg,/static/Category_learning/Stimuli/Experimental_stims/power strip/31oz6aGZN7L._AA262_.jpg,,,,,,,,,,1.0,284.0,1.5,,,,,,
354,,isi,,html-keyboard-response,354,281607,0.0-1.0-13.0-0.6-2.6,0,0,97341,,,,,,,,,,,,,,,,,,,,,,,,,,,,,,,,,,,,,,285.5,1.5,,,,,,
355,,no_response,,html-keyboard-response,355,282612,0.0-1.0-13.0-0.6-4.6-0.6,1,0,97341,,,,,,,,,,,,,,,,,,,,,,,,,,,,,,,,,,,,,,286.5,1.0,,,,,,
356,,iti,,html-keyboard-response,356,282729,0.0-1.0-13.0-0.6-5.6,0,0,97341,,,,,,,,,,,,,,,,,,,,,,,,,,,,,,,,,,,,,,287.5,1.0,,,,,,
357,,choice,,html-keyboard-response,357,284236,0.0-1.0-13.0-0.7-0.7,0,0,97341,,,,,,11.0,311.0,1000.0,1500.0,0.0,6.0,0.0,20-80,,0.0,stool,power strip,20.0,80.0,stool2,power strip15,40.0,100.0,ASTOOL46.jpg,31oz6aGZN7L._AA262_.jpg,/static/Category_learning/Stimuli/Experimental_stims/stool/ASTOOL46.jpg,/static/Category_learning/Stimuli/Experimental_stims/power strip/31oz6aGZN7L._AA262_.jpg,,,,,,,,,,1.0,289.0,1.5,,,,,,
358,,isi,,html-keyboard-response,358,284340,0.0-1.0-13.0-0.7-2.7,0,0,97341,,,,,,,,,,,,,,,,,,,,,,,,,,,,,,,,,,,,,,291.0,2.0,,,,,,
359,,no_response,,html-keyboard-response,359,285342,0.0-1.0-13.0-0.7-4.7-0.7,1,0,97341,,,,,,,,,,,,,,,,,,,,,,,,,,,,,,,,,,,,,,292.0,1.0,,,,,,
360,,iti,,html-keyboard-response,360,285460,0.0-1.0-13.0-0.7-5.7,0,0,97341,,,,,,,,,,,,,,,,,,,,,,,,,,,,,,,,,,,,,,293.0,1.0,,,,,,
361,,choice,,html-keyboard-response,361,286824,0.0-1.0-13.0-0.8-0.8,0,0,97341,,1361.0,,,75.0,11.0,311.0,1000.0,1500.0,0.0,6.0,0.0,20-80,,0.0,stool,power strip,20.0,80.0,stool2,power strip15,40.0,100.0,ASTOOL46.jpg,31oz6aGZN7L._AA262_.jpg,/static/Category_learning/Stimuli/Experimental_stims/stool/ASTOOL46.jpg,/static/Category_learning/Stimuli/Experimental_stims/power strip/31oz6aGZN7L._AA262_.jpg,0.0,power strip,stool,80.0,20.0,power strip15,stool2,100.0,40.0,0.0,294.361,1.361,,,,,,
362,,confirmation,,html-keyboard-response,362,286969,0.0-1.0-13.0-0.8-1.8-0.8,0,0,97341,,,,,,11.0,,,,,,,,,,,,,,,,,,,,,,,,,,,,,,,,294.5,0.139,,,,,,
363,,isi,,html-keyboard-response,363,287073,0.0-1.0-13.0-0.8-2.8,0,0,97341,,,,,,,,,,,,,,,,,,,,,,,,,,,,,,,,,,,,,,295.5,1.0,,,,,,
364,,feedback,,html-keyboard-response,364,288078,0.0-1.0-13.0-0.8-3.8-0.8,0,0,97341,,,,,,11.0,,,,,,,,,,,,,,,,,,,,,,,,,,,,,,,,296.5,1.0,,,,,,
365,,iti,,html-keyboard-response,365,288185,0.0-1.0-13.0-0.8-5.8,0,0,97341,,,,,,,,,,,,,,,,,,,,,,,,,,,,,,,,,,,,,,297.5,1.0,,,,,,
366,,choice,,html-keyboard-response,366,288293,0.0-1.0-14.0-0.0-0.0,0,0,97341,,104.0,,,68.0,12.0,312.0,3000.0,3000.0,0.0,6.0,0.0,60-80,,1.0,seashell,lipstick,80.0,60.0,seashell5,lipstick2,80.0,40.0,429345994_b87bb03366.jpg,11uuoPMY+OL._SS500_.jpg,/static/Category_learning/Stimuli/Experimental_stims/seashell/429345994_b87bb03366.jpg,/static/Category_learning/Stimuli/Experimental_stims/lipstick/11uuoPMY+OL._SS500_.jpg,1.0,seashell,lipstick,80.0,60.0,seashell5,lipstick2,80.0,40.0,0.0,297.604,0.104,,,,,,
367,,confirmation,,html-keyboard-response,367,289695,0.0-1.0-14.0-0.0-1.0-0.0,0,0,97341,,,,,,12.0,,,,,,,,,,,,,,,,,,,,,,,,,,,,,,,,299.0,1.396,,,,,,
368,,isi,,html-keyboard-response,368,289801,0.0-1.0-14.0-0.0-2.0,0,0,97341,,,,,,,,,,,,,,,,,,,,,,,,,,,,,,,,,,,,,,302.0,3.0,,,,,,
369,,feedback,,html-keyboard-response,369,290809,0.0-1.0-14.0-0.0-3.0-0.0,0,0,97341,,,,,,12.0,,,,,,,,,,,,,,,,,,,,,,,,,,,,,,,,303.0,1.0,,,,,,
370,,iti,,html-keyboard-response,370,290917,0.0-1.0-14.0-0.0-5.0,0,0,97341,,,,,,,,,,,,,,,,,,,,,,,,,,,,,,,,,,,,,,306.0,3.0,,,,,,
371,,choice,,html-keyboard-response,371,292425,0.0-1.0-15.0-0.0-0.0,0,0,97341,,,,,,13.0,313.0,3000.0,1000.0,0.0,6.0,0.0,40-40,,,bowl,flashlight,40.0,40.0,bowl8,flashlight15,20.0,40.0,ASLVBOWL.jpg,freeplay-xray-wind-up-led-flashlight.jpg,/static/Category_learning/Stimuli/Experimental_stims/bowl/ASLVBOWL.jpg,/static/Category_learning/Stimuli/Experimental_stims/flashlight/freeplay-xray-wind-up-led-flashlight.jpg,,,,,,,,,,1.0,307.5,1.5,,,,,,
372,,isi,,html-keyboard-response,372,292532,0.0-1.0-15.0-0.0-2.0,0,0,97341,,,,,,,,,,,,,,,,,,,,,,,,,,,,,,,,,,,,,,310.5,3.0,,,,,,
373,,no_response,,html-keyboard-response,373,293538,0.0-1.0-15.0-0.0-4.0-0.0,1,0,97341,,,,,,,,,,,,,,,,,,,,,,,,,,,,,,,,,,,,,,311.5,1.0,,,,,,
374,,iti,,html-keyboard-response,374,293657,0.0-1.0-15.0-0.0-5.0,0,0,97341,,,,,,,,,,,,,,,,,,,,,,,,,,,,,,,,,,,,,,312.5,1.0,,,,,,
375,,choice,,html-keyboard-response,375,295161,0.0-1.0-15.0-0.1-0.1,0,0,97341,,,,,,13.0,313.0,3000.0,1000.0,0.0,6.0,0.0,40-40,,,bowl,flashlight,40.0,40.0,bowl8,flashlight15,20.0,40.0,ASLVBOWL.jpg,freeplay-xray-wind-up-led-flashlight.jpg,/static/Category_learning/Stimuli/Experimental_stims/bowl/ASLVBOWL.jpg,/static/Category_learning/Stimuli/Experimental_stims/flashlight/freeplay-xray-wind-up-led-flashlight.jpg,,,,,,,,,,1.0,314.0,1.5,,,,,,
376,,isi,,html-keyboard-response,376,295268,0.0-1.0-15.0-0.1-2.1,0,0,97341,,,,,,,,,,,,,,,,,,,,,,,,,,,,,,,,,,,,,,316.0,2.0,,,,,,
377,,no_response,,html-keyboard-response,377,296273,0.0-1.0-15.0-0.1-4.1-0.1,1,0,97341,,,,,,,,,,,,,,,,,,,,,,,,,,,,,,,,,,,,,,317.0,1.0,,,,,,
378,,iti,,html-keyboard-response,378,296393,0.0-1.0-15.0-0.1-5.1,0,0,97341,,,,,,,,,,,,,,,,,,,,,,,,,,,,,,,,,,,,,,318.0,1.0,,,,,,
379,,choice,,html-keyboard-response,379,297897,0.0-1.0-15.0-0.2-0.2,0,0,97341,,,,,,13.0,313.0,3000.0,1000.0,0.0,6.0,0.0,40-40,,,bowl,flashlight,40.0,40.0,bowl8,flashlight15,20.0,40.0,ASLVBOWL.jpg,freeplay-xray-wind-up-led-flashlight.jpg,/static/Category_learning/Stimuli/Experimental_stims/bowl/ASLVBOWL.jpg,/static/Category_learning/Stimuli/Experimental_stims/flashlight/freeplay-xray-wind-up-led-flashlight.jpg,,,,,,,,,,1.0,319.5,1.5,,,,,,
380,,isi,,html-keyboard-response,380,298004,0.0-1.0-15.0-0.2-2.2,0,0,97341,,,,,,,,,,,,,,,,,,,,,,,,,,,,,,,,,,,,,,320.5,1.0,,,,,,
381,,no_response,,html-keyboard-response,381,299011,0.0-1.0-15.0-0.2-4.2-0.2,1,0,97341,,,,,,,,,,,,,,,,,,,,,,,,,,,,,,,,,,,,,,321.5,1.0,,,,,,
382,,iti,,html-keyboard-response,382,299129,0.0-1.0-15.0-0.2-5.2,0,0,97341,,,,,,,,,,,,,,,,,,,,,,,,,,,,,,,,,,,,,,322.5,1.0,,,,,,
383,,choice,,html-keyboard-response,383,300636,0.0-1.0-15.0-0.3-0.3,0,0,97341,,,,,,13.0,313.0,3000.0,1000.0,0.0,6.0,0.0,40-40,,,bowl,flashlight,40.0,40.0,bowl8,flashlight15,20.0,40.0,ASLVBOWL.jpg,freeplay-xray-wind-up-led-flashlight.jpg,/static/Category_learning/Stimuli/Experimental_stims/bowl/ASLVBOWL.jpg,/static/Category_learning/Stimuli/Experimental_stims/flashlight/freeplay-xray-wind-up-led-flashlight.jpg,,,,,,,,,,1.0,324.0,1.5,,,,,,
384,,isi,,html-keyboard-response,384,300740,0.0-1.0-15.0-0.3-2.3,0,0,97341,,,,,,,,,,,,,,,,,,,,,,,,,,,,,,,,,,,,,,326.0,2.0,,,,,,
385,,no_response,,html-keyboard-response,385,301748,0.0-1.0-15.0-0.3-4.3-0.3,1,0,97341,,,,,,,,,,,,,,,,,,,,,,,,,,,,,,,,,,,,,,327.0,1.0,,,,,,
386,,iti,,html-keyboard-response,386,301865,0.0-1.0-15.0-0.3-5.3,0,0,97341,,,,,,,,,,,,,,,,,,,,,,,,,,,,,,,,,,,,,,328.0,1.0,,,,,,
387,,choice,,html-keyboard-response,387,303373,0.0-1.0-15.0-0.4-0.4,0,0,97341,,,,,,13.0,313.0,3000.0,1000.0,0.0,6.0,0.0,40-40,,,bowl,flashlight,40.0,40.0,bowl8,flashlight15,20.0,40.0,ASLVBOWL.jpg,freeplay-xray-wind-up-led-flashlight.jpg,/static/Category_learning/Stimuli/Experimental_stims/bowl/ASLVBOWL.jpg,/static/Category_learning/Stimuli/Experimental_stims/flashlight/freeplay-xray-wind-up-led-flashlight.jpg,,,,,,,,,,1.0,329.5,1.5,,,,,,
388,,isi,,html-keyboard-response,388,303478,0.0-1.0-15.0-0.4-2.4,0,0,97341,,,,,,,,,,,,,,,,,,,,,,,,,,,,,,,,,,,,,,330.5,1.0,,,,,,
389,,no_response,,html-keyboard-response,389,304484,0.0-1.0-15.0-0.4-4.4-0.4,1,0,97341,,,,,,,,,,,,,,,,,,,,,,,,,,,,,,,,,,,,,,331.5,1.0,,,,,,
390,,iti,,html-keyboard-response,390,304602,0.0-1.0-15.0-0.4-5.4,0,0,97341,,,,,,,,,,,,,,,,,,,,,,,,,,,,,,,,,,,,,,335.0,3.5,,,,,,
391,,choice,,html-keyboard-response,391,306109,0.0-1.0-15.0-0.5-0.5,0,0,97341,,,,,,13.0,313.0,3000.0,1000.0,0.0,6.0,0.0,40-40,,,bowl,flashlight,40.0,40.0,bowl8,flashlight15,20.0,40.0,ASLVBOWL.jpg,freeplay-xray-wind-up-led-flashlight.jpg,/static/Category_learning/Stimuli/Experimental_stims/bowl/ASLVBOWL.jpg,/static/Category_learning/Stimuli/Experimental_stims/flashlight/freeplay-xray-wind-up-led-flashlight.jpg,,,,,,,,,,1.0,336.5,1.5,,,,,,
392,,isi,,html-keyboard-response,392,306212,0.0-1.0-15.0-0.5-2.5,0,0,97341,,,,,,,,,,,,,,,,,,,,,,,,,,,,,,,,,,,,,,339.5,3.0,,,,,,
393,,no_response,,html-keyboard-response,393,307214,0.0-1.0-15.0-0.5-4.5-0.5,1,0,97341,,,,,,,,,,,,,,,,,,,,,,,,,,,,,,,,,,,,,,340.5,1.0,,,,,,
394,,iti,,html-keyboard-response,394,307332,0.0-1.0-15.0-0.5-5.5,0,0,97341,,,,,,,,,,,,,,,,,,,,,,,,,,,,,,,,,,,,,,341.5,1.0,,,,,,
395,,choice,,html-keyboard-response,395,308840,0.0-1.0-15.0-0.6-0.6,0,0,97341,,,,,,13.0,313.0,3000.0,1000.0,0.0,6.0,0.0,40-40,,,bowl,flashlight,40.0,40.0,bowl8,flashlight15,20.0,40.0,ASLVBOWL.jpg,freeplay-xray-wind-up-led-flashlight.jpg,/static/Category_learning/Stimuli/Experimental_stims/bowl/ASLVBOWL.jpg,/static/Category_learning/Stimuli/Experimental_stims/flashlight/freeplay-xray-wind-up-led-flashlight.jpg,,,,,,,,,,1.0,343.0,1.5,,,,,,
396,,isi,,html-keyboard-response,396,308943,0.0-1.0-15.0-0.6-2.6,0,0,97341,,,,,,,,,,,,,,,,,,,,,,,,,,,,,,,,,,,,,,346.5,3.5,,0.34,,,,
397,,final_tally,,html-keyboard-response,397,329389,0.0-2.0-0.0,0,0,97341,,20442.0,,,68.0,,,,,,,,,,,,,,,,,,,,,,,,,,,,,,,,,,,,,,,,
398,,category_memory_instructions,,instructions,398,332607,0.0-3.0-0.0,0,0,97341,"[{""page_index"":0,""viewing_time"":1613},{""page_index"":1,""viewing_time"":1051},{""page_index"":2,""viewing_time"":531}]",3195.0,,,,,,,,,,,,,,,,,,,,,,,,,,,,,,,,,,,,,,,,,,,
399,,category_memory,,survey-text,399,337066,0.0-3.0-1.0-0.0,0,0,97341,,4456.0,"{""Q0"":""1\n""}",,,0.0,,,,,,,,,,,,,,,,,,,,,,,,,,,,,,,,,,,,desk,40.0,1.0,
400,,category_memory,,survey-text,400,338263,0.0-3.0-2.0-0.0,0,0,97341,,1194.0,"{""Q0"":""1\n""}",,,1.0,,,,,,,,,,,,,,,,,,,,,,,,,,,,,,,,,,,,power strip,80.0,1.0,
401,,category_memory,,survey-text,401,339907,0.0-3.0-3.0-0.0,0,0,97341,,1641.0,"{""Q0"":""1""}",,,2.0,,,,,,,,,,,,,,,,,,,,,,,,,,,,,,,,,,,,tent,20.0,1.0,
402,,category_memory,,survey-text,402,341022,0.0-3.0-4.0-0.0,0,0,97341,,1110.0,"{""Q0"":""1""}",,,3.0,,,,,,,,,,,,,,,,,,,,,,,,,,,,,,,,,,,,dresser,40.0,1.0,
403,,category_memory,,survey-text,403,342004,0.0-3.0-5.0-0.0,0,0,97341,,979.0,"{""Q0"":""1""}",,,4.0,,,,,,,,,,,,,,,,,,,,,,,,,,,,,,,,,,,,poker card,80.0,1.0,
404,,category_memory,,survey-text,404,342915,0.0-3.0-6.0-0.0,0,0,97341,,907.0,"{""Q0"":""1""}",,,5.0,,,,,,,,,,,,,,,,,,,,,,,,,,,,,,,,,,,,small table,80.0,1.0,
405,,category_memory,,survey-text,405,343987,0.0-3.0-7.0-0.0,0,0,97341,,1068.0,"{""Q0"":""1""}",,,6.0,,,,,,,,,,,,,,,,,,,,,,,,,,,,,,,,,,,,frame,60.0,1.0,
406,,category_memory,,survey-text,406,344828,0.0-3.0-8.0-0.0,0,0,97341,,837.0,"{""Q0"":""1""}",,,7.0,,,,,,,,,,,,,,,,,,,,,,,,,,,,,,,,,,,,seashell,80.0,1.0,
407,,category_memory,,survey-text,407,345699,0.0-3.0-9.0-0.0,0,0,97341,,868.0,"{""Q0"":""1""}",,,8.0,,,,,,,,,,,,,,,,,,,,,,,,,,,,,,,,,,,,tape,20.0,1.0,
408,,category_memory,,survey-text,408,346613,0.0-3.0-10.0-0.0,0,0,97341,,911.0,"{""Q0"":""1""}",,,9.0,,,,,,,,,,,,,,,,,,,,,,,,,,,,,,,,,,,,door knob,40.0,1.0,
409,,category_memory,,survey-text,409,347458,0.0-3.0-11.0-0.0,0,0,97341,,841.0,"{""Q0"":""1""}",,,10.0,,,,,,,,,,,,,,,,,,,,,,,,,,,,,,,,,,,,trumpet,20.0,1.0,
410,,category_memory,,survey-text,410,348670,0.0-3.0-12.0-0.0,0,0,97341,,1208.0,"{""Q0"":""1""}",,,11.0,,,,,,,,,,,,,,,,,,,,,,,,,,,,,,,,,,,,makeup compact,60.0,1.0,
411,,category_memory,,survey-text,411,349520,0.0-3.0-13.0-0.0,0,0,97341,,847.0,"{""Q0"":""1""}",,,12.0,,,,,,,,,,,,,,,,,,,,,,,,,,,,,,,,,,,,vase,20.0,1.0,
412,,category_memory,,survey-text,412,350353,0.0-3.0-14.0-0.0,0,0,97341,,829.0,"{""Q0"":""1""}",,,13.0,,,,,,,,,,,,,,,,,,,,,,,,,,,,,,,,,,,,patio lounge chair,80.0,1.0,
413,,category_memory,,survey-text,413,351777,0.0-3.0-15.0-0.0,0,0,97341,,1421.0,"{""Q0"":""1""}",,,14.0,,,,,,,,,,,,,,,,,,,,,,,,,,,,,,,,,,,,train,20.0,1.0,
414,,category_memory,,survey-text,414,352952,0.0-3.0-16.0-0.0,0,0,97341,,1172.0,"{""Q0"":""1""}",,,15.0,,,,,,,,,,,,,,,,,,,,,,,,,,,,,,,,,,,,nail polish,80.0,1.0,
415,,category_memory,,survey-text,415,353802,0.0-3.0-17.0-0.0,0,0,97341,,847.0,"{""Q0"":""1""}",,,16.0,,,,,,,,,,,,,,,,,,,,,,,,,,,,,,,,,,,,fan,40.0,1.0,
416,,category_memory,,survey-text,416,355285,0.0-3.0-18.0-0.0,0,0,97341,,1479.0,"{""Q0"":""1""}",,,17.0,,,,,,,,,,,,,,,,,,,,,,,,,,,,,,,,,,,,motorcycle,60.0,1.0,
417,,category_memory,,survey-text,417,356305,0.0-3.0-19.0-0.0,0,0,97341,,1017.0,"{""Q0"":""1""}",,,18.0,,,,,,,,,,,,,,,,,,,,,,,,,,,,,,,,,,,,hammer,60.0,1.0,
418,,category_memory,,survey-text,418,357172,0.0-3.0-20.0-0.0,0,0,97341,,864.0,"{""Q0"":""1""}",,,19.0,,,,,,,,,,,,,,,,,,,,,,,,,,,,,,,,,,,,watch,20.0,1.0,
419,,category_memory,,survey-text,419,358088,0.0-3.0-21.0-0.0,0,0,97341,,913.0,"{""Q0"":""1""}",,,20.0,,,,,,,,,,,,,,,,,,,,,,,,,,,,,,,,,,,,baby carriage,40.0,1.0,
420,,category_memory,,survey-text,420,358927,0.0-3.0-22.0-0.0,0,0,97341,,835.0,"{""Q0"":""1""}",,,21.0,,,,,,,,,,,,,,,,,,,,,,,,,,,,,,,,,,,,key chain,60.0,1.0,
421,,category_memory,,survey-text,421,360112,0.0-3.0-23.0-0.0,0,0,97341,,1182.0,"{""Q0"":""1""}",,,22.0,,,,,,,,,,,,,,,,,,,,,,,,,,,,,,,,,,,,stool,20.0,1.0,
422,,category_memory,,survey-text,422,366524,0.0-3.0-24.0-0.0,0,0,97341,,6409.0,"{""Q0"":""1""}",,,23.0,,,,,,,,,,,,,,,,,,,,,,,,,,,,,,,,,,,,flashlight,40.0,1.0,
423,,category_memory,,survey-text,423,367694,0.0-3.0-25.0-0.0,0,0,97341,,1167.0,"{""Q0"":""1""}",,,24.0,,,,,,,,,,,,,,,,,,,,,,,,,,,,,,,,,,,,bench,40.0,1.0,
424,,category_memory,,survey-text,424,368971,0.0-3.0-26.0-0.0,0,0,97341,,1274.0,"{""Q0"":""1""}",,,25.0,,,,,,,,,,,,,,,,,,,,,,,,,,,,,,,,,,,,lipstick,60.0,1.0,
425,,category_memory,,survey-text,425,370190,0.0-3.0-27.0-0.0,0,0,97341,,1216.0,"{""Q0"":""1""}",,,26.0,,,,,,,,,,,,,,,,,,,,,,,,,,,,,,,,,,,,sofa,80.0,1.0,
426,,category_memory,,survey-text,426,371429,0.0-3.0-28.0-0.0,0,0,97341,,1236.0,"{""Q0"":""""}",,,27.0,,,,,,,,,,,,,,,,,,,,,,,,,,,,,,,,,,,,pen,80.0,,
427,,enter_reponse,,html-keyboard-response,427,372911,0.0-3.0-28.0-1.0-0.0,1,0,97341,,1479.0,,,68.0,,,,,,,,,,,,,,,,,,,,,,,,,,,,,,,,,,,,,,,,1.0
428,,category_memory,,survey-text,428,374238,0.0-3.0-28.1-0.1,0,0,97341,,1324.0,"{""Q0"":""1""}",,,27.0,,,,,,,,,,,,,,,,,,,,,,,,,,,,,,,,,,,,pen,80.0,1.0,
429,,category_memory,,survey-text,429,378689,0.0-3.0-29.0-0.0,0,0,97341,,4447.0,"{""Q0"":""1""}",,,28.0,,,,,,,,,,,,,,,,,,,,,,,,,,,,,,,,,,,,telescope,20.0,1.0,
430,,category_memory,,survey-text,430,382553,0.0-3.0-30.0-0.0,0,0,97341,,3860.0,"{""Q0"":""2""}",,,29.0,,,,,,,,,,,,,,,,,,,,,,,,,,,,,,,,,,,,hat,60.0,2.0,
431,,category_memory,,survey-text,431,383560,0.0-3.0-31.0-0.0,0,0,97341,,1004.0,"{""Q0"":""2""}",,,30.0,,,,,,,,,,,,,,,,,,,,,,,,,,,,,,,,,,,,necklace,80.0,2.0,
432,,category_memory,,survey-text,432,384310,0.0-3.0-32.0-0.0,0,0,97341,,747.0,"{""Q0"":""2""}",,,31.0,,,,,,,,,,,,,,,,,,,,,,,,,,,,,,,,,,,,bowl,40.0,2.0,
433,,category_memory,,survey-text,433,385118,0.0-3.0-33.0-0.0,0,0,97341,,805.0,"{""Q0"":""2""}",,,32.0,,,,,,,,,,,,,,,,,,,,,,,,,,,,,,,,,,,,microscope,60.0,2.0,
434,,category_memory,,survey-text,434,385835,0.0-3.0-34.0-0.0,0,0,97341,,712.0,"{""Q0"":""2""}",,,33.0,,,,,,,,,,,,,,,,,,,,,,,,,,,,,,,,,,,,license plate,60.0,2.0,
435,,category_memory,,survey-text,435,386563,0.0-3.0-35.0-0.0,0,0,97341,,724.0,"{""Q0"":""2""}",,,34.0,,,,,,,,,,,,,,,,,,,,,,,,,,,,,,,,,,,,yarn,20.0,2.0,
436,,category_memory,,survey-text,436,387311,0.0-3.0-36.0-0.0,0,0,97341,,744.0,"{""Q0"":""2""}",,,35.0,,,,,,,,,,,,,,,,,,,,,,,,,,,,,,,,,,,,bongo,40.0,2.0,
