,success,ttype,start_time,trial_type,trial_index,time_elapsed,internal_node_id,warning,missed_checkup,PID,view_history,rt,responses,repeat_instructions,key_press,index,trial_num,isi,iti,is_practice,block,old_trial,pair_type,within_category,high_cat_on_left,left_category,right_category,left_category_value,right_category_value,left_exemplar,right_exemplar,left_exemplar_value,right_exemplar_value,left_img,right_img,left_img_path,right_img_path,no_response,onset,duration,left_chosen,chosen_category,unchosen_category,chosen_category_value,unchosen_category_value,chosen_exemplar,unchosen_exemplar,chosen_exemplar_value,unchosen_exemplar_value,end_practice,total_bonus_tally,category,category_group_value,category_value_response,did_not_enter_response
0,True,full_screen,d06072022hr1114,fullscreen,0,5689,0.0-0.0,0,0,87963,,,,,,,,,,,,,,,,,,,,,,,,,,,,,,,,,,,,,,,,,,,,,
1,,category_learning_instructions,,instructions,1,50265,0.0-1.0-0.0-0.0,0,0,87963,"[{""page_index"":0,""viewing_time"":9639},{""page_index"":1,""viewing_time"":8214},{""page_index"":2,""viewing_time"":5979},{""page_index"":3,""viewing_time"":7285},{""page_index"":4,""viewing_time"":7791},{""page_index"":5,""viewing_time"":3800},{""page_index"":6,""viewing_time"":1864}]",44572.0,,,,,,,,,,,,,,,,,,,,,,,,,,,,,,,,,,,,,,,,,,,
2,,category_learning_comprehension_check,,survey-multi-choice,2,62163,0.0-1.0-0.0-1.0,0,0,87963,,11889.0,"{""Q0"":""True"",""Q1"":""True"",""Q2"":""Change"",""Q3"":""D for left and K for right""}",1.0,,,,,,,,,,,,,,,,,,,,,,,,,,,,,,,,,,,,,,,,,
3,,missed_instruction_checkup,,html-keyboard-response,3,64124,0.0-1.0-0.0-2.0-0.0,0,0,87963,,1954.0,,,68.0,,,,,,,,,,,,,,,,,,,,,,,,,,,,,,,,,,,,,,,,
4,,category_learning_instructions,,instructions,4,90833,0.0-1.0-0.1-0.1,0,0,87963,"[{""page_index"":0,""viewing_time"":5258},{""page_index"":1,""viewing_time"":5832},{""page_index"":2,""viewing_time"":4262},{""page_index"":3,""viewing_time"":6062},{""page_index"":4,""viewing_time"":3491},{""page_index"":5,""viewing_time"":1032},{""page_index"":6,""viewing_time"":768}]",26705.0,,,,,,,,,,,,,,,,,,,,,,,,,,,,,,,,,,,,,,,,,,,
5,,category_learning_comprehension_check,,survey-multi-choice,5,98445,0.0-1.0-0.1-1.1,0,0,87963,,7603.0,"{""Q0"":""True"",""Q1"":""True"",""Q2"":""Change"",""Q3"":""D for left and K for right""}",1.0,,,,,,,,,,,,,,,,,,,,,,,,,,,,,,,,,,,,,,,,,
6,,missed_instruction_checkup,,html-keyboard-response,6,100542,0.0-1.0-0.1-2.1-0.1,0,0,87963,,2092.0,,,68.0,,,,,,,,,,,,,,,,,,,,,,,,,,,,,,,,,,,,,,,,
7,,category_learning_instructions,,instructions,7,116937,0.0-1.0-0.2-0.2,0,0,87963,"[{""page_index"":0,""viewing_time"":2374},{""page_index"":1,""viewing_time"":8352},{""page_index"":2,""viewing_time"":3153},{""page_index"":3,""viewing_time"":631},{""page_index"":4,""viewing_time"":584},{""page_index"":5,""viewing_time"":591},{""page_index"":6,""viewing_time"":705}]",16391.0,,,,,,,,,,,,,,,,,,,,,,,,,,,,,,,,,,,,,,,,,,,
8,,category_learning_comprehension_check,,survey-multi-choice,8,122343,0.0-1.0-0.2-1.2,0,0,87963,,5398.0,"{""Q0"":""True"",""Q1"":""True"",""Q2"":""Stay the same"",""Q3"":""D for left and K for right""}",0.0,,,,,,,,,,,,,,,,,,,,,,,,,,,,,,,,,,,,,,,,,
9,,,,html-keyboard-response,9,123843,0.0-1.0-1.0,0,0,87963,,1496.0,,,68.0,,,,,,,,,,,,,,,,,,,,,,,,,,,,,,,,,,,,,,,,
10,,choice,,html-keyboard-response,10,125358,0.0-1.0-2.0-0.0-0.0,0,0,87963,,,,,,0.0,0.0,1500.0,1000.0,1.0,0.0,0.0,20-80,,0.0,bagel,dumbbell,20.0,80.0,bagel1,dumbbell1,0.0,80.0,bagels_pumpernickel_large.jpg,31B64EN68AL._AA280_.jpg,/static/Category_learning/Stimuli/Practice_stims/bagel/bagels_pumpernickel_large.jpg,/static/Category_learning/Stimuli/Practice_stims/dumbbell/31B64EN68AL._AA280_.jpg,1.0,1.5,1.5,,,,,,,,,,,,,,,
11,,isi,,html-keyboard-response,11,126864,0.0-1.0-2.0-0.0-2.0,0,0,87963,,,,,,0.0,,,,,0.0,,,,,,,,,,,,,,,,,,3.0,1.5,,,,,,,,,,,,,,,
12,,no_response,,html-keyboard-response,12,127872,0.0-1.0-2.0-0.0-4.0-0.0,0,0,87963,,,,,,0.0,,,,,0.0,,,,,,,,,,,,,,,,,,4.0,1.0,,,,,,,,,,,,,,,
13,,iti,,html-keyboard-response,13,128876,0.0-1.0-2.0-0.0-5.0,0,0,87963,,,,,,0.0,,,,,0.0,,,,,,,,,,,,,,,,,,5.0,1.0,,,,,,,,,,,,,,,
14,,choice,,html-keyboard-response,14,129459,0.0-1.0-2.0-0.1-0.1,0,0,87963,,574.0,,,68.0,0.0,0.0,1500.0,1000.0,1.0,0.0,0.0,20-80,,0.0,bagel,dumbbell,20.0,80.0,bagel1,dumbbell1,0.0,80.0,bagels_pumpernickel_large.jpg,31B64EN68AL._AA280_.jpg,/static/Category_learning/Stimuli/Practice_stims/bagel/bagels_pumpernickel_large.jpg,/static/Category_learning/Stimuli/Practice_stims/dumbbell/31B64EN68AL._AA280_.jpg,0.0,5.574,0.574,1.0,bagel,dumbbell,20.0,80.0,bagel1,dumbbell1,0.0,80.0,,,,,,
15,,confirmation,,html-keyboard-response,15,130391,0.0-1.0-2.0-0.1-1.1-0.1,0,0,87963,,,,,,0.0,,,,,0.0,,,,,,,,,,,,,,,,,,6.5,0.926,,,,,,,,,,,,,,,
16,,isi,,html-keyboard-response,16,131896,0.0-1.0-2.0-0.1-2.1,0,0,87963,,,,,,0.0,,,,,0.0,,,,,,,,,,,,,,,,,,8.0,1.5,,,,,,,,,,,,,,,
17,,feedback,,html-keyboard-response,17,132902,0.0-1.0-2.0-0.1-3.1-0.1,0,0,87963,,,,,,0.0,,,,,0.0,,,,,,,,,,,,,,,,,,9.0,1.0,,,,,,,,,,,,,,,
18,,iti,,html-keyboard-response,18,133908,0.0-1.0-2.0-0.1-5.1,0,0,87963,,,,,,0.0,,,,,0.0,,,,,,,,,,,,,,,,,,10.0,1.0,,,,,,,,,,,,,,,
19,,choice,,html-keyboard-response,19,134391,0.0-1.0-3.0-0.0-0.0,0,0,87963,,477.0,,,75.0,1.0,1.0,3000.0,1500.0,1.0,0.0,0.0,20-40,,1.0,calculator,bagel,40.0,20.0,calculator2,bagel2,20.0,20.0,22829064.thl.jpg,bagels_cinnraisin_large.jpg,/static/Category_learning/Stimuli/Practice_stims/calculator/22829064.thl.jpg,/static/Category_learning/Stimuli/Practice_stims/bagel/bagels_cinnraisin_large.jpg,0.0,10.477,0.477,0.0,bagel,calculator,20.0,40.0,bagel2,calculator2,20.0,20.0,,,,,,
20,,confirmation,,html-keyboard-response,20,135422,0.0-1.0-3.0-0.0-1.0-0.0,0,0,87963,,,,,,1.0,,,,,0.0,,,,,,,,,,,,,,,,,,11.5,1.023,,,,,,,,,,,,,,,
21,,isi,,html-keyboard-response,21,138426,0.0-1.0-3.0-0.0-2.0,0,0,87963,,,,,,1.0,,,,,0.0,,,,,,,,,,,,,,,,,,14.5,3.0,,,,,,,,,,,,,,,
22,,feedback,,html-keyboard-response,22,139430,0.0-1.0-3.0-0.0-3.0-0.0,0,0,87963,,,,,,1.0,,,,,0.0,,,,,,,,,,,,,,,,,,15.5,1.0,,,,,,,,,,,,,,,
23,,iti,,html-keyboard-response,23,140937,0.0-1.0-3.0-0.0-5.0,0,0,87963,,,,,,1.0,,,,,0.0,,,,,,,,,,,,,,,,,,17.0,1.5,,,,,,,,,,,,,,,
24,,choice,,html-keyboard-response,24,141214,0.0-1.0-4.0-0.0-0.0,0,0,87963,,271.0,,,68.0,2.0,2.0,2000.0,3000.0,1.0,0.0,0.0,60-80,,0.0,clock,dumbbell,60.0,80.0,clock2,dumbbell2,60.0,100.0,26373355.thl.jpg,31K8MR6TMBL._SS500_.jpg,/static/Category_learning/Stimuli/Practice_stims/clock/26373355.thl.jpg,/static/Category_learning/Stimuli/Practice_stims/dumbbell/31K8MR6TMBL._SS500_.jpg,0.0,17.271,0.271,1.0,clock,dumbbell,60.0,80.0,clock2,dumbbell2,60.0,100.0,,,,,,
25,,confirmation,,html-keyboard-response,25,142448,0.0-1.0-4.0-0.0-1.0-0.0,0,0,87963,,,,,,2.0,,,,,0.0,,,,,,,,,,,,,,,,,,18.5,1.229,,,,,,,,,,,,,,,
26,,isi,,html-keyboard-response,26,144457,0.0-1.0-4.0-0.0-2.0,0,0,87963,,,,,,2.0,,,,,0.0,,,,,,,,,,,,,,,,,,20.5,2.0,,,,,,,,,,,,,,,
27,,feedback,,html-keyboard-response,27,145461,0.0-1.0-4.0-0.0-3.0-0.0,0,0,87963,,,,,,2.0,,,,,0.0,,,,,,,,,,,,,,,,,,21.5,1.0,,,,,,,,,,,,,,,
28,,iti,,html-keyboard-response,28,148467,0.0-1.0-4.0-0.0-5.0,0,0,87963,,,,,,2.0,,,,,0.0,,,,,,,,,,,,,,,,,,24.5,3.0,,,,,,,,,,,,,,,
29,,choice,,html-keyboard-response,29,148928,0.0-1.0-5.0-0.0-0.0,0,0,87963,,453.0,,,75.0,3.0,3.0,1000.0,2000.0,1.0,0.0,0.0,40-80,,0.0,calculator,clock,40.0,60.0,calculator1,clock1,40.0,40.0,22829184.thl.jpg,Aalarmclock2.jpg,/static/Category_learning/Stimuli/Practice_stims/calculator/22829184.thl.jpg,/static/Category_learning/Stimuli/Practice_stims/clock/Aalarmclock2.jpg,0.0,24.953,0.453,0.0,clock,calculator,60.0,40.0,clock1,calculator1,40.0,40.0,,,,,,
30,,confirmation,,html-keyboard-response,30,149980,0.0-1.0-5.0-0.0-1.0-0.0,0,0,87963,,,,,,3.0,,,,,0.0,,,,,,,,,,,,,,,,,,26.0,1.047,,,,,,,,,,,,,,,
31,,isi,,html-keyboard-response,31,150989,0.0-1.0-5.0-0.0-2.0,0,0,87963,,,,,,3.0,,,,,0.0,,,,,,,,,,,,,,,,,,27.0,1.0,,,,,,,,,,,,,,,
32,,feedback,,html-keyboard-response,32,151994,0.0-1.0-5.0-0.0-3.0-0.0,0,0,87963,,,,,,3.0,,,,,0.0,,,,,,,,,,,,,,,,,,28.0,1.0,,,,,,,,,,,,,,,
33,,iti,,html-keyboard-response,33,154000,0.0-1.0-5.0-0.0-5.0,0,0,87963,,,,,,3.0,,,,,0.0,,,,,,,,,,,,,,,,,,30.0,2.0,,,,,,,,,,,,,,,
34,,choice,,html-keyboard-response,34,154374,0.0-1.0-6.0-0.0-0.0,0,0,87963,,366.0,,,75.0,4.0,4.0,2500.0,2500.0,1.0,0.0,0.0,20-60,,1.0,dumbbell,bagel,80.0,20.0,dumbbell3,bagel3,100.0,40.0,41K7QVRX50L._SS500_.jpg,photo-169.jpg,/static/Category_learning/Stimuli/Practice_stims/dumbbell/41K7QVRX50L._SS500_.jpg,/static/Category_learning/Stimuli/Practice_stims/bagel/photo-169.jpg,0.0,30.366,0.366,0.0,bagel,dumbbell,20.0,80.0,bagel3,dumbbell3,40.0,100.0,1.0,,,,,
35,,confirmation,,html-keyboard-response,35,155520,0.0-1.0-6.0-0.0-1.0-0.0,0,0,87963,,,,,,4.0,,,,,0.0,,,,,,,,,,,,,,,,,,31.5,1.134,,,,,,,,,,,,,,,
36,,isi,,html-keyboard-response,36,158024,0.0-1.0-6.0-0.0-2.0,0,0,87963,,,,,,4.0,,,,,0.0,,,,,,,,,,,,,,,,,,34.0,2.5,,,,,,,,,,,,,,,
37,,feedback,,html-keyboard-response,37,159028,0.0-1.0-6.0-0.0-3.0-0.0,0,0,87963,,,,,,4.0,,,,,0.0,,,,,,,,,,,,,,,,,,35.0,1.0,,,,,,,,,,,,,,,
38,,iti,,html-keyboard-response,38,161534,0.0-1.0-6.0-0.0-5.0,0,0,87963,,,,,,4.0,,,,,0.0,,,,,,,,,,,,,,,,,,37.5,2.5,,,,,,,,,,,,,,,
39,,practice_over,,html-keyboard-response,39,161976,0.0-1.0-6.0-0.0-6.0-0.0,0,0,87963,,438.0,,,68.0,4.0,,,,,,,,,,,,,,,,,,,,,,,,,,,,,,,,,,,,,,,
40,,start_run,,html-keyboard-response,40,165877,0.0-1.0-6.0-0.0-6.0-1.0,0,0,87963,,3897.0,,,84.0,,,,,,,,,,,,,,,,,,,,,,,,,,,,,,,,,,,,,,,,
41,,choice,,html-keyboard-response,41,166473,0.0-1.0-7.0-0.0-0.0,0,0,87963,,586.0,,,75.0,5.0,5.0,2000.0,2000.0,0.0,1.0,0.0,40-80,,1.0,desk,patio lounge chair,80.0,40.0,desk1,patio lounge chair15,100.0,40.0,ADESK11.jpg,phpThumb.jpg,/static/Category_learning/Stimuli/Experimental_stims/desk/ADESK11.jpg,/static/Category_learning/Stimuli/Experimental_stims/patio lounge chair/phpThumb.jpg,0.0,0.586,0.586,0.0,patio lounge chair,desk,40.0,80.0,patio lounge chair15,desk1,40.0,100.0,,,,,,
42,,confirmation,,html-keyboard-response,42,167391,0.0-1.0-7.0-0.0-1.0-0.0,0,0,87963,,,,,,5.0,,,,,1.0,,,,,,,,,,,,,,,,,,1.5,0.914,,,,,,,,,,,,,,,
43,,isi,,html-keyboard-response,43,169394,0.0-1.0-7.0-0.0-2.0,0,0,87963,,,,,,5.0,,,,,1.0,,,,,,,,,,,,,,,,,,3.5,2.0,,,,,,,,,,,,,,,
44,,feedback,,html-keyboard-response,44,170401,0.0-1.0-7.0-0.0-3.0-0.0,0,0,87963,,,,,,5.0,,,,,1.0,,,,,,,,,,,,,,,,,,4.5,1.0,,,,,,,,,,,,,,,
45,,iti,,html-keyboard-response,45,172406,0.0-1.0-7.0-0.0-5.0,0,0,87963,,,,,,5.0,,,,,1.0,,,,,,,,,,,,,,,,,,6.5,2.0,,,,,,,,,,,,,,,
46,,choice,,html-keyboard-response,46,172939,0.0-1.0-8.0-0.0-0.0,0,0,87963,,528.0,,,68.0,6.0,6.0,3000.0,1500.0,0.0,1.0,0.0,40-60,,0.0,poker card,tent,40.0,60.0,poker card12,tent9,20.0,60.0,22865676.thl.jpg,Red Canyon Tent.jpg,/static/Category_learning/Stimuli/Experimental_stims/poker card/22865676.thl.jpg,/static/Category_learning/Stimuli/Experimental_stims/tent/Red Canyon Tent.jpg,0.0,7.0280000000000005,0.528,1.0,poker card,tent,40.0,60.0,poker card12,tent9,20.0,60.0,,,,,,
47,,confirmation,,html-keyboard-response,47,173920,0.0-1.0-8.0-0.0-1.0-0.0,0,0,87963,,,,,,6.0,,,,,1.0,,,,,,,,,,,,,,,,,,8.0,0.972,,,,,,,,,,,,,,,
48,,isi,,html-keyboard-response,48,176925,0.0-1.0-8.0-0.0-2.0,0,0,87963,,,,,,6.0,,,,,1.0,,,,,,,,,,,,,,,,,,11.0,3.0,,,,,,,,,,,,,,,
49,,feedback,,html-keyboard-response,49,177937,0.0-1.0-8.0-0.0-3.0-0.0,0,0,87963,,,,,,6.0,,,,,1.0,,,,,,,,,,,,,,,,,,12.0,1.0,,,,,,,,,,,,,,,
50,,iti,,html-keyboard-response,50,179445,0.0-1.0-8.0-0.0-5.0,0,0,87963,,,,,,6.0,,,,,1.0,,,,,,,,,,,,,,,,,,13.5,1.5,,,,,,,,,,,,,,,
51,,choice,,html-keyboard-response,51,179860,0.0-1.0-9.0-0.0-0.0,0,0,87963,,408.0,,,75.0,7.0,7.0,2000.0,1000.0,0.0,1.0,0.0,40-60,,0.0,pen,tent,40.0,60.0,pen6,tent6,20.0,80.0,executive_pen2.jpg,lighthouse_tent_edited_1-1.jpg,/static/Category_learning/Stimuli/Experimental_stims/pen/executive_pen2.jpg,/static/Category_learning/Stimuli/Experimental_stims/tent/lighthouse_tent_edited_1-1.jpg,0.0,13.908,0.408,0.0,tent,pen,60.0,40.0,tent6,pen6,80.0,20.0,,,,,,
52,,confirmation,,html-keyboard-response,52,180957,0.0-1.0-9.0-0.0-1.0-0.0,0,0,87963,,,,,,7.0,,,,,1.0,,,,,,,,,,,,,,,,,,15.0,1.092,,,,,,,,,,,,,,,
53,,isi,,html-keyboard-response,53,182960,0.0-1.0-9.0-0.0-2.0,0,0,87963,,,,,,7.0,,,,,1.0,,,,,,,,,,,,,,,,,,17.0,2.0,,,,,,,,,,,,,,,
54,,feedback,,html-keyboard-response,54,183964,0.0-1.0-9.0-0.0-3.0-0.0,0,0,87963,,,,,,7.0,,,,,1.0,,,,,,,,,,,,,,,,,,18.0,1.0,,,,,,,,,,,,,,,
55,,iti,,html-keyboard-response,55,184969,0.0-1.0-9.0-0.0-5.0,0,0,87963,,,,,,7.0,,,,,1.0,,,,,,,,,,,,,,,,,,19.0,1.0,,,,,,,,,,,,,,,
56,,choice,,html-keyboard-response,56,185593,0.0-1.0-10.0-0.0-0.0,0,0,87963,,615.0,,,75.0,8.0,8.0,1000.0,1000.0,0.0,1.0,0.0,20-60,,1.0,tent,lipstick,60.0,20.0,tent14,lipstick5,60.0,0.0,inflatable-tent.jpg,P35719_hero.jpg,/static/Category_learning/Stimuli/Experimental_stims/tent/inflatable-tent.jpg,/static/Category_learning/Stimuli/Experimental_stims/lipstick/P35719_hero.jpg,0.0,19.615,0.615,0.0,lipstick,tent,20.0,60.0,lipstick5,tent14,0.0,60.0,,,,,,
57,,confirmation,,html-keyboard-response,57,186489,0.0-1.0-10.0-0.0-1.0-0.0,0,0,87963,,,,,,8.0,,,,,1.0,,,,,,,,,,,,,,,,,,20.5,0.885,,,,,,,,,,,,,,,
58,,isi,,html-keyboard-response,58,187493,0.0-1.0-10.0-0.0-2.0,0,0,87963,,,,,,8.0,,,,,1.0,,,,,,,,,,,,,,,,,,21.5,1.0,,,,,,,,,,,,,,,
59,,feedback,,html-keyboard-response,59,188497,0.0-1.0-10.0-0.0-3.0-0.0,0,0,87963,,,,,,8.0,,,,,1.0,,,,,,,,,,,,,,,,,,22.5,1.0,,,,,,,,,,,,,,,
60,,iti,,html-keyboard-response,60,189505,0.0-1.0-10.0-0.0-5.0,0,0,87963,,,,,,8.0,,,,,1.0,,,,,,,,,,,,,,,,,,23.5,1.0,,,,,,,,,,,,,,,
61,,choice,,html-keyboard-response,61,190458,0.0-1.0-11.0-0.0-0.0,0,0,87963,,947.0,,,75.0,9.0,9.0,1000.0,1000.0,0.0,1.0,0.0,20-60,,1.0,watch,frame,60.0,20.0,watch8,frame6,60.0,40.0,2239.jpg,AFRAME123.jpg,/static/Category_learning/Stimuli/Experimental_stims/watch/2239.jpg,/static/Category_learning/Stimuli/Experimental_stims/frame/AFRAME123.jpg,0.0,24.447,0.947,0.0,frame,watch,20.0,60.0,frame6,watch8,40.0,60.0,,,,,,
62,,confirmation,,html-keyboard-response,62,191018,0.0-1.0-11.0-0.0-1.0-0.0,0,0,87963,,,,,,9.0,,,,,1.0,,,,,,,,,,,,,,,,,,25.0,0.553,,,,,,,,,,,,,,,
63,,isi,,html-keyboard-response,63,192030,0.0-1.0-11.0-0.0-2.0,0,0,87963,,,,,,9.0,,,,,1.0,,,,,,,,,,,,,,,,,,26.0,1.0,,,,,,,,,,,,,,,
64,,feedback,,html-keyboard-response,64,193038,0.0-1.0-11.0-0.0-3.0-0.0,0,0,87963,,,,,,9.0,,,,,1.0,,,,,,,,,,,,,,,,,,27.0,1.0,,,,,,,,,,,,,,,
65,,iti,,html-keyboard-response,65,194042,0.0-1.0-11.0-0.0-5.0,0,0,87963,,,,,,9.0,,,,,1.0,,,,,,,,,,,,,,,,,,28.0,1.0,,,,,,,,,,,,,,,
66,,choice,,html-keyboard-response,66,194554,0.0-1.0-12.0-0.0-0.0,0,0,87963,,503.0,,,75.0,10.0,10.0,3000.0,2000.0,0.0,1.0,1.0,40-40,0.0,,patio lounge chair,poker card,40.0,40.0,patio lounge chair15,poker card12,40.0,20.0,phpThumb.jpg,22865676.thl.jpg,/static/Category_learning/Stimuli/Experimental_stims/patio lounge chair/phpThumb.jpg,/static/Category_learning/Stimuli/Experimental_stims/poker card/22865676.thl.jpg,0.0,28.503,0.503,0.0,poker card,patio lounge chair,40.0,40.0,poker card12,patio lounge chair15,20.0,40.0,,,,,,
67,,confirmation,,html-keyboard-response,67,195557,0.0-1.0-12.0-0.0-1.0-0.0,0,0,87963,,,,,,10.0,,,,,1.0,,,,,,,,,,,,,,,,,,29.5,0.997,,,,,,,,,,,,,,,
68,,isi,,html-keyboard-response,68,198561,0.0-1.0-12.0-0.0-2.0,0,0,87963,,,,,,10.0,,,,,1.0,,,,,,,,,,,,,,,,,,32.5,3.0,,,,,,,,,,,,,,,
69,,feedback,,html-keyboard-response,69,199570,0.0-1.0-12.0-0.0-3.0-0.0,0,0,87963,,,,,,10.0,,,,,1.0,,,,,,,,,,,,,,,,,,33.5,1.0,,,,,,,,,,,,,,,
70,,iti,,html-keyboard-response,70,201574,0.0-1.0-12.0-0.0-5.0,0,0,87963,,,,,,10.0,,,,,1.0,,,,,,,,,,,,,,,,,,35.5,2.0,,,,,,,,,,,,,,,
71,,choice,,html-keyboard-response,71,202446,0.0-1.0-13.0-0.0-0.0,0,0,87963,,867.0,,,75.0,11.0,11.0,1000.0,2000.0,0.0,1.0,0.0,40-60,,1.0,tape,nail polish,60.0,40.0,tape12,nail polish5,60.0,40.0,Frog-Tape-Dispenser_F02218A2.jpg,182_t.jpg,/static/Category_learning/Stimuli/Experimental_stims/tape/Frog-Tape-Dispenser_F02218A2.jpg,/static/Category_learning/Stimuli/Experimental_stims/nail polish/182_t.jpg,0.0,36.367,0.867,0.0,nail polish,tape,40.0,60.0,nail polish5,tape12,40.0,60.0,,,,,,
72,,confirmation,,html-keyboard-response,72,203091,0.0-1.0-13.0-0.0-1.0-0.0,0,0,87963,,,,,,11.0,,,,,1.0,,,,,,,,,,,,,,,,,,37.0,0.633,,,,,,,,,,,,,,,
73,,isi,,html-keyboard-response,73,204095,0.0-1.0-13.0-0.0-2.0,0,0,87963,,,,,,11.0,,,,,1.0,,,,,,,,,,,,,,,,,,38.0,1.0,,,,,,,,,,,,,,,
74,,feedback,,html-keyboard-response,74,205105,0.0-1.0-13.0-0.0-3.0-0.0,0,0,87963,,,,,,11.0,,,,,1.0,,,,,,,,,,,,,,,,,,39.0,1.0,,,,,,,,,,,,,,,
75,,iti,,html-keyboard-response,75,207109,0.0-1.0-13.0-0.0-5.0,0,0,87963,,,,,,11.0,,,,,1.0,,,,,,,,,,,,,,,,,,41.0,2.0,,,,,,,,,,,,,,,
76,,choice,,html-keyboard-response,76,207662,0.0-1.0-14.0-0.0-0.0,0,0,87963,,548.0,,,68.0,12.0,12.0,3500.0,1500.0,0.0,1.0,0.0,20-60,,1.0,tape,makeup compact,60.0,20.0,tape7,makeup compact6,60.0,40.0,tape dispenser.jpg,P0754_hero.jpg,/static/Category_learning/Stimuli/Experimental_stims/tape/tape dispenser.jpg,/static/Category_learning/Stimuli/Experimental_stims/makeup compact/P0754_hero.jpg,0.0,41.548,0.548,1.0,tape,makeup compact,60.0,20.0,tape7,makeup compact6,60.0,40.0,,,,,,
77,,confirmation,,html-keyboard-response,77,208623,0.0-1.0-14.0-0.0-1.0-0.0,0,0,87963,,,,,,12.0,,,,,1.0,,,,,,,,,,,,,,,,,,42.5,0.952,,,,,,,,,,,,,,,
78,,isi,,html-keyboard-response,78,212126,0.0-1.0-14.0-0.0-2.0,0,0,87963,,,,,,12.0,,,,,1.0,,,,,,,,,,,,,,,,,,46.0,3.5,,,,,,,,,,,,,,,
79,,feedback,,html-keyboard-response,79,213132,0.0-1.0-14.0-0.0-3.0-0.0,0,0,87963,,,,,,12.0,,,,,1.0,,,,,,,,,,,,,,,,,,47.0,1.0,,,,,,,,,,,,,,,
80,,iti,,html-keyboard-response,80,214656,0.0-1.0-14.0-0.0-5.0,0,0,87963,,,,,,12.0,,,,,1.0,,,,,,,,,,,,,,,,,,48.5,1.5,,,,,,,,,,,,,,,
81,,choice,,html-keyboard-response,81,215231,0.0-1.0-15.0-0.0-0.0,0,0,87963,,565.0,,,75.0,13.0,13.0,2000.0,1500.0,0.0,1.0,0.0,20-80,,1.0,bowl,microscope,80.0,20.0,bowl3,microscope15,60.0,40.0,ABOWL8.jpg,Amicroscope23.jpg,/static/Category_learning/Stimuli/Experimental_stims/bowl/ABOWL8.jpg,/static/Category_learning/Stimuli/Experimental_stims/microscope/Amicroscope23.jpg,0.0,49.065,0.565,0.0,microscope,bowl,20.0,80.0,microscope15,bowl3,40.0,60.0,,,,,,
82,,confirmation,,html-keyboard-response,82,216172,0.0-1.0-15.0-0.0-1.0-0.0,0,0,87963,,,,,,13.0,,,,,1.0,,,,,,,,,,,,,,,,,,50.0,0.935,,,,,,,,,,,,,,,
83,,isi,,html-keyboard-response,83,218176,0.0-1.0-15.0-0.0-2.0,0,0,87963,,,,,,13.0,,,,,1.0,,,,,,,,,,,,,,,,,,52.0,2.0,,,,,,,,,,,,,,,
84,,feedback,,html-keyboard-response,84,219180,0.0-1.0-15.0-0.0-3.0-0.0,0,0,87963,,,,,,13.0,,,,,1.0,,,,,,,,,,,,,,,,,,53.0,1.0,,,,,,,,,,,,,,,
85,,iti,,html-keyboard-response,85,220688,0.0-1.0-15.0-0.0-5.0,0,0,87963,,,,,,13.0,,,,,1.0,,,,,,,,,,,,,,,,,,54.5,1.5,,,,,,,,,,,,,,,
86,,choice,,html-keyboard-response,86,221669,0.0-1.0-16.0-0.0-0.0,0,0,87963,,976.0,,,75.0,14.0,14.0,1000.0,2000.0,0.0,1.0,0.0,40-80,,1.0,door knob,necklace,80.0,40.0,door knob10,necklace14,80.0,20.0,c02a578d-c6cc-44ca-8dd2-de8901e30bd7_4.jpg,necklascenew05.jpg,/static/Category_learning/Stimuli/Experimental_stims/door knob/c02a578d-c6cc-44ca-8dd2-de8901e30bd7_4.jpg,/static/Category_learning/Stimuli/Experimental_stims/necklace/necklascenew05.jpg,0.0,55.476,0.976,0.0,necklace,door knob,40.0,80.0,necklace14,door knob10,20.0,80.0,,,,,,
87,,confirmation,,html-keyboard-response,87,222201,0.0-1.0-16.0-0.0-1.0-0.0,0,0,87963,,,,,,14.0,,,,,1.0,,,,,,,,,,,,,,,,,,56.0,0.524,,,,,,,,,,,,,,,
88,,isi,,html-keyboard-response,88,223207,0.0-1.0-16.0-0.0-2.0,0,0,87963,,,,,,14.0,,,,,1.0,,,,,,,,,,,,,,,,,,57.0,1.0,,,,,,,,,,,,,,,
89,,feedback,,html-keyboard-response,89,224212,0.0-1.0-16.0-0.0-3.0-0.0,0,0,87963,,,,,,14.0,,,,,1.0,,,,,,,,,,,,,,,,,,58.0,1.0,,,,,,,,,,,,,,,
90,,iti,,html-keyboard-response,90,226218,0.0-1.0-16.0-0.0-5.0,0,0,87963,,,,,,14.0,,,,,1.0,,,,,,,,,,,,,,,,,,60.0,2.0,,,,,,,,,,,,,,,
91,,choice,,html-keyboard-response,91,226766,0.0-1.0-17.0-0.0-0.0,0,0,87963,,538.0,,,68.0,15.0,15.0,1000.0,1500.0,0.0,1.0,0.0,20-40,,0.0,motorcycle,sofa,20.0,40.0,motorcycle10,sofa5,20.0,60.0,motorcycle17.jpg,ALOVSEA14.jpg,/static/Category_learning/Stimuli/Experimental_stims/motorcycle/motorcycle17.jpg,/static/Category_learning/Stimuli/Experimental_stims/sofa/ALOVSEA14.jpg,0.0,60.538,0.538,1.0,motorcycle,sofa,20.0,40.0,motorcycle10,sofa5,20.0,60.0,,,,,,
92,,confirmation,,html-keyboard-response,92,227735,0.0-1.0-17.0-0.0-1.0-0.0,0,0,87963,,,,,,15.0,,,,,1.0,,,,,,,,,,,,,,,,,,61.5,0.962,,,,,,,,,,,,,,,
93,,isi,,html-keyboard-response,93,228739,0.0-1.0-17.0-0.0-2.0,0,0,87963,,,,,,15.0,,,,,1.0,,,,,,,,,,,,,,,,,,62.5,1.0,,,,,,,,,,,,,,,
94,,feedback,,html-keyboard-response,94,229745,0.0-1.0-17.0-0.0-3.0-0.0,0,0,87963,,,,,,15.0,,,,,1.0,,,,,,,,,,,,,,,,,,63.5,1.0,,,,,,,,,,,,,,,
95,,iti,,html-keyboard-response,95,231252,0.0-1.0-17.0-0.0-5.0,0,0,87963,,,,,,15.0,,,,,1.0,,,,,,,,,,,,,,,,,,65.0,1.5,,,,,,,,,,,,,,,
96,,choice,,html-keyboard-response,96,231782,0.0-1.0-18.0-0.0-0.0,0,0,87963,,522.0,,,75.0,16.0,16.0,1000.0,3000.0,0.0,1.0,0.0,60-60,,,telescope,yarn,60.0,60.0,telescope6,yarn15,80.0,80.0,LO-telescope-89769.jpg,rainbowscarf-600x394.jpg,/static/Category_learning/Stimuli/Experimental_stims/telescope/LO-telescope-89769.jpg,/static/Category_learning/Stimuli/Experimental_stims/yarn/rainbowscarf-600x394.jpg,0.0,65.522,0.522,0.0,yarn,telescope,60.0,60.0,yarn15,telescope6,80.0,80.0,,,,,,
97,,confirmation,,html-keyboard-response,97,232769,0.0-1.0-18.0-0.0-1.0-0.0,0,0,87963,,,,,,16.0,,,,,1.0,,,,,,,,,,,,,,,,,,66.5,0.978,,,,,,,,,,,,,,,
98,,isi,,html-keyboard-response,98,233776,0.0-1.0-18.0-0.0-2.0,0,0,87963,,,,,,16.0,,,,,1.0,,,,,,,,,,,,,,,,,,67.5,1.0,,,,,,,,,,,,,,,
99,,feedback,,html-keyboard-response,99,234781,0.0-1.0-18.0-0.0-3.0-0.0,0,0,87963,,,,,,16.0,,,,,1.0,,,,,,,,,,,,,,,,,,68.5,1.0,,,,,,,,,,,,,,,
100,,iti,,html-keyboard-response,100,237786,0.0-1.0-18.0-0.0-5.0,0,0,87963,,,,,,16.0,,,,,1.0,,,,,,,,,,,,,,,,,,71.5,3.0,,,,,,,,,,,,,,,
101,,choice,,html-keyboard-response,101,238260,0.0-1.0-19.0-0.0-0.0,0,0,87963,,468.0,,,75.0,17.0,17.0,1500.0,2000.0,0.0,1.0,0.0,20-20,,,license plate,makeup compact,20.0,20.0,license plate10,makeup compact7,40.0,0.0,pa-nfn-011.jpg,P187133_hero.jpg,/static/Category_learning/Stimuli/Experimental_stims/license plate/pa-nfn-011.jpg,/static/Category_learning/Stimuli/Experimental_stims/makeup compact/P187133_hero.jpg,0.0,71.968,0.468,0.0,makeup compact,license plate,20.0,20.0,makeup compact7,license plate10,0.0,40.0,,,,,,
102,,confirmation,,html-keyboard-response,102,239300,0.0-1.0-19.0-0.0-1.0-0.0,0,0,87963,,,,,,17.0,,,,,1.0,,,,,,,,,,,,,,,,,,73.0,1.032,,,,,,,,,,,,,,,
103,,isi,,html-keyboard-response,103,240808,0.0-1.0-19.0-0.0-2.0,0,0,87963,,,,,,17.0,,,,,1.0,,,,,,,,,,,,,,,,,,74.5,1.5,,,,,,,,,,,,,,,
104,,feedback,,html-keyboard-response,104,241812,0.0-1.0-19.0-0.0-3.0-0.0,0,0,87963,,,,,,17.0,,,,,1.0,,,,,,,,,,,,,,,,,,75.5,1.0,,,,,,,,,,,,,,,
105,,iti,,html-keyboard-response,105,243817,0.0-1.0-19.0-0.0-5.0,0,0,87963,,,,,,17.0,,,,,1.0,,,,,,,,,,,,,,,,,,77.5,2.0,,,,,,,,,,,,,,,
106,,choice,,html-keyboard-response,106,244122,0.0-1.0-20.0-0.0-0.0,0,0,87963,,295.0,,,68.0,18.0,18.0,2000.0,2000.0,0.0,1.0,1.0,20-60,0.0,,motorcycle,tent,20.0,60.0,motorcycle10,tent6,20.0,80.0,motorcycle17.jpg,lighthouse_tent_edited_1-1.jpg,/static/Category_learning/Stimuli/Experimental_stims/motorcycle/motorcycle17.jpg,/static/Category_learning/Stimuli/Experimental_stims/tent/lighthouse_tent_edited_1-1.jpg,0.0,77.795,0.295,1.0,motorcycle,tent,20.0,60.0,motorcycle10,tent6,20.0,80.0,,,,,,
107,,confirmation,,html-keyboard-response,107,245332,0.0-1.0-20.0-0.0-1.0-0.0,0,0,87963,,,,,,18.0,,,,,1.0,,,,,,,,,,,,,,,,,,79.0,1.205,,,,,,,,,,,,,,,
108,,isi,,html-keyboard-response,108,247338,0.0-1.0-20.0-0.0-2.0,0,0,87963,,,,,,18.0,,,,,1.0,,,,,,,,,,,,,,,,,,81.0,2.0,,,,,,,,,,,,,,,
109,,feedback,,html-keyboard-response,109,248344,0.0-1.0-20.0-0.0-3.0-0.0,0,0,87963,,,,,,18.0,,,,,1.0,,,,,,,,,,,,,,,,,,82.0,1.0,,,,,,,,,,,,,,,
110,,iti,,html-keyboard-response,110,250348,0.0-1.0-20.0-0.0-5.0,0,0,87963,,,,,,18.0,,,,,1.0,,,,,,,,,,,,,,,,,,84.0,2.0,,,,,,,,,,,,,,,
111,,choice,,html-keyboard-response,111,250768,0.0-1.0-21.0-0.0-0.0,0,0,87963,,411.0,,,75.0,19.0,19.0,1500.0,1500.0,0.0,1.0,1.0,20-40,0.0,,necklace,makeup compact,40.0,20.0,necklace14,makeup compact7,20.0,0.0,necklascenew05.jpg,P187133_hero.jpg,/static/Category_learning/Stimuli/Experimental_stims/necklace/necklascenew05.jpg,/static/Category_learning/Stimuli/Experimental_stims/makeup compact/P187133_hero.jpg,0.0,84.411,0.411,0.0,makeup compact,necklace,20.0,40.0,makeup compact7,necklace14,0.0,20.0,,,,,,
112,,confirmation,,html-keyboard-response,112,251862,0.0-1.0-21.0-0.0-1.0-0.0,0,0,87963,,,,,,19.0,,,,,1.0,,,,,,,,,,,,,,,,,,85.5,1.089,,,,,,,,,,,,,,,
113,,isi,,html-keyboard-response,113,253366,0.0-1.0-21.0-0.0-2.0,0,0,87963,,,,,,19.0,,,,,1.0,,,,,,,,,,,,,,,,,,87.0,1.5,,,,,,,,,,,,,,,
114,,feedback,,html-keyboard-response,114,254376,0.0-1.0-21.0-0.0-3.0-0.0,0,0,87963,,,,,,19.0,,,,,1.0,,,,,,,,,,,,,,,,,,88.0,1.0,,,,,,,,,,,,,,,
115,,iti,,html-keyboard-response,115,255880,0.0-1.0-21.0-0.0-5.0,0,0,87963,,,,,,19.0,,,,,1.0,,,,,,,,,,,,,,,,,,89.5,1.5,,,,,,,,,,,,,,,
116,,choice,,html-keyboard-response,116,256244,0.0-1.0-22.0-0.0-0.0,0,0,87963,,351.0,,,68.0,20.0,20.0,2000.0,1000.0,0.0,1.0,0.0,40-80,,0.0,patio lounge chair,bongo,40.0,80.0,patio lounge chair11,bongo1,60.0,100.0,51830.jpg,ABONGO22.jpg,/static/Category_learning/Stimuli/Experimental_stims/patio lounge chair/51830.jpg,/static/Category_learning/Stimuli/Experimental_stims/bongo/ABONGO22.jpg,0.0,89.851,0.351,1.0,patio lounge chair,bongo,40.0,80.0,patio lounge chair11,bongo1,60.0,100.0,,,,,,
117,,confirmation,,html-keyboard-response,117,257397,0.0-1.0-22.0-0.0-1.0-0.0,0,0,87963,,,,,,20.0,,,,,1.0,,,,,,,,,,,,,,,,,,91.0,1.149,,,,,,,,,,,,,,,
118,,isi,,html-keyboard-response,118,259406,0.0-1.0-22.0-0.0-2.0,0,0,87963,,,,,,20.0,,,,,1.0,,,,,,,,,,,,,,,,,,93.0,2.0,,,,,,,,,,,,,,,
119,,feedback,,html-keyboard-response,119,260412,0.0-1.0-22.0-0.0-3.0-0.0,0,0,87963,,,,,,20.0,,,,,1.0,,,,,,,,,,,,,,,,,,94.0,1.0,,,,,,,,,,,,,,,
120,,iti,,html-keyboard-response,120,261421,0.0-1.0-22.0-0.0-5.0,0,0,87963,,,,,,20.0,,,,,1.0,,,,,,,,,,,,,,,,,,95.0,1.0,,,,,,,,,,,,,,,
121,,choice,,html-keyboard-response,121,262355,0.0-1.0-23.0-0.0-0.0,0,0,87963,,923.0,,,75.0,21.0,21.0,1500.0,1500.0,0.0,1.0,1.0,20-20,0.0,,lipstick,frame,20.0,20.0,lipstick5,frame6,0.0,40.0,P35719_hero.jpg,AFRAME123.jpg,/static/Category_learning/Stimuli/Experimental_stims/lipstick/P35719_hero.jpg,/static/Category_learning/Stimuli/Experimental_stims/frame/AFRAME123.jpg,0.0,95.923,0.923,0.0,frame,lipstick,20.0,20.0,frame6,lipstick5,40.0,0.0,,,,,,
122,,confirmation,,html-keyboard-response,122,262937,0.0-1.0-23.0-0.0-1.0-0.0,0,0,87963,,,,,,21.0,,,,,1.0,,,,,,,,,,,,,,,,,,96.5,0.577,,,,,,,,,,,,,,,
123,,isi,,html-keyboard-response,123,264441,0.0-1.0-23.0-0.0-2.0,0,0,87963,,,,,,21.0,,,,,1.0,,,,,,,,,,,,,,,,,,98.0,1.5,,,,,,,,,,,,,,,
124,,feedback,,html-keyboard-response,124,265446,0.0-1.0-23.0-0.0-3.0-0.0,0,0,87963,,,,,,21.0,,,,,1.0,,,,,,,,,,,,,,,,,,99.0,1.0,,,,,,,,,,,,,,,
125,,iti,,html-keyboard-response,125,266955,0.0-1.0-23.0-0.0-5.0,0,0,87963,,,,,,21.0,,,,,1.0,,,,,,,,,,,,,,,,,,100.5,1.5,,,,,,,,,,,,,,,
126,,choice,,html-keyboard-response,126,267510,0.0-1.0-24.0-0.0-0.0,0,0,87963,,550.0,,,75.0,22.0,22.0,2000.0,2000.0,0.0,1.0,0.0,40-80,,1.0,baby carriage,seashell,80.0,40.0,baby carriage6,seashell2,60.0,20.0,Baby_Stroller-1.jpg,ph_stri_seashell.jpg,/static/Category_learning/Stimuli/Experimental_stims/baby carriage/Baby_Stroller-1.jpg,/static/Category_learning/Stimuli/Experimental_stims/seashell/ph_stri_seashell.jpg,0.0,101.05,0.55,0.0,seashell,baby carriage,40.0,80.0,seashell2,baby carriage6,20.0,60.0,,,,,,
127,,confirmation,,html-keyboard-response,127,268472,0.0-1.0-24.0-0.0-1.0-0.0,0,0,87963,,,,,,22.0,,,,,1.0,,,,,,,,,,,,,,,,,,102.0,0.95,,,,,,,,,,,,,,,
128,,isi,,html-keyboard-response,128,270477,0.0-1.0-24.0-0.0-2.0,0,0,87963,,,,,,22.0,,,,,1.0,,,,,,,,,,,,,,,,,,104.0,2.0,,,,,,,,,,,,,,,
129,,feedback,,html-keyboard-response,129,271486,0.0-1.0-24.0-0.0-3.0-0.0,0,0,87963,,,,,,22.0,,,,,1.0,,,,,,,,,,,,,,,,,,105.0,1.0,,,,,,,,,,,,,,,
130,,iti,,html-keyboard-response,130,273491,0.0-1.0-24.0-0.0-5.0,0,0,87963,,,,,,22.0,,,,,1.0,,,,,,,,,,,,,,,,,,107.0,2.0,,,,,,,,,,,,,,,
131,,choice,,html-keyboard-response,131,273958,0.0-1.0-25.0-0.0-0.0,0,0,87963,,461.0,,,75.0,23.0,23.0,1000.0,1000.0,0.0,1.0,0.0,20-80,,1.0,dresser,hat,80.0,20.0,dresser12,hat4,80.0,20.0,ADRESSE58.jpg,JS370.jpg,/static/Category_learning/Stimuli/Experimental_stims/dresser/ADRESSE58.jpg,/static/Category_learning/Stimuli/Experimental_stims/hat/JS370.jpg,0.0,107.461,0.461,0.0,hat,dresser,20.0,80.0,hat4,dresser12,20.0,80.0,,,,,,
132,,confirmation,,html-keyboard-response,132,275007,0.0-1.0-25.0-0.0-1.0-0.0,0,0,87963,,,,,,23.0,,,,,1.0,,,,,,,,,,,,,,,,,,108.5,1.039,,,,,,,,,,,,,,,
133,,isi,,html-keyboard-response,133,276011,0.0-1.0-25.0-0.0-2.0,0,0,87963,,,,,,23.0,,,,,1.0,,,,,,,,,,,,,,,,,,109.5,1.0,,,,,,,,,,,,,,,
134,,feedback,,html-keyboard-response,134,277022,0.0-1.0-25.0-0.0-3.0-0.0,0,0,87963,,,,,,23.0,,,,,1.0,,,,,,,,,,,,,,,,,,110.5,1.0,,,,,,,,,,,,,,,
135,,iti,,html-keyboard-response,135,278026,0.0-1.0-25.0-0.0-5.0,0,0,87963,,,,,,23.0,,,,,1.0,,,,,,,,,,,,,,,,,,111.5,1.0,,,,,,,,,,,,,,,
136,,choice,,html-keyboard-response,136,278440,0.0-1.0-26.0-0.0-0.0,0,0,87963,,408.0,,,75.0,24.0,24.0,2000.0,2000.0,0.0,1.0,0.0,20-80,,1.0,door knob,hammer,80.0,20.0,door knob13,hammer15,100.0,0.0,500_CLAWALBC.jpg,Vaughan-32-oz-Hickory-Handle-Ball-Pein-Hammer-S432-B0001LRUJM-L-ARCQ0EBO8TR73_.jpg,/static/Category_learning/Stimuli/Experimental_stims/door knob/500_CLAWALBC.jpg,/static/Category_learning/Stimuli/Experimental_stims/hammer/Vaughan-32-oz-Hickory-Handle-Ball-Pein-Hammer-S432-B0001LRUJM-L-ARCQ0EBO8TR73_.jpg,0.0,111.908,0.408,0.0,hammer,door knob,20.0,80.0,hammer15,door knob13,0.0,100.0,,,,,,
137,,confirmation,,html-keyboard-response,137,279537,0.0-1.0-26.0-0.0-1.0-0.0,0,0,87963,,,,,,24.0,,,,,1.0,,,,,,,,,,,,,,,,,,113.0,1.092,,,,,,,,,,,,,,,
138,,isi,,html-keyboard-response,138,281541,0.0-1.0-26.0-0.0-2.0,0,0,87963,,,,,,24.0,,,,,1.0,,,,,,,,,,,,,,,,,,115.0,2.0,,,,,,,,,,,,,,,
139,,feedback,,html-keyboard-response,139,282545,0.0-1.0-26.0-0.0-3.0-0.0,0,0,87963,,,,,,24.0,,,,,1.0,,,,,,,,,,,,,,,,,,116.0,1.0,,,,,,,,,,,,,,,
140,,iti,,html-keyboard-response,140,284552,0.0-1.0-26.0-0.0-5.0,0,0,87963,,,,,,24.0,,,,,1.0,,,,,,,,,,,,,,,,,,118.0,2.0,,,,,,,,,,,,,,,
141,,choice,,html-keyboard-response,141,285151,0.0-1.0-27.0-0.0-0.0,0,0,87963,,592.0,,,75.0,25.0,25.0,1000.0,1500.0,0.0,1.0,0.0,20-40,,0.0,hammer,nail polish,20.0,40.0,hammer7,nail polish12,40.0,40.0,hammer01.jpg,laquerdUP.jpg,/static/Category_learning/Stimuli/Experimental_stims/hammer/hammer01.jpg,/static/Category_learning/Stimuli/Experimental_stims/nail polish/laquerdUP.jpg,0.0,118.592,0.592,0.0,nail polish,hammer,40.0,20.0,nail polish12,hammer7,40.0,40.0,,,,,,
142,,confirmation,,html-keyboard-response,142,286068,0.0-1.0-27.0-0.0-1.0-0.0,0,0,87963,,,,,,25.0,,,,,1.0,,,,,,,,,,,,,,,,,,119.5,0.908,,,,,,,,,,,,,,,
143,,isi,,html-keyboard-response,143,287073,0.0-1.0-27.0-0.0-2.0,0,0,87963,,,,,,25.0,,,,,1.0,,,,,,,,,,,,,,,,,,120.5,1.0,,,,,,,,,,,,,,,
144,,feedback,,html-keyboard-response,144,288077,0.0-1.0-27.0-0.0-3.0-0.0,0,0,87963,,,,,,25.0,,,,,1.0,,,,,,,,,,,,,,,,,,121.5,1.0,,,,,,,,,,,,,,,
145,,iti,,html-keyboard-response,145,289588,0.0-1.0-27.0-0.0-5.0,0,0,87963,,,,,,25.0,,,,,1.0,,,,,,,,,,,,,,,,,,123.0,1.5,,,,,,,,,,,,,,,
146,,choice,,html-keyboard-response,146,289951,0.0-1.0-28.0-0.0-0.0,0,0,87963,,356.0,,,75.0,26.0,26.0,3500.0,1000.0,0.0,1.0,0.0,20-60,,1.0,stool,makeup compact,60.0,20.0,stool4,makeup compact5,40.0,40.0,ASTOOL22.jpg,P109965_hero.jpg,/static/Category_learning/Stimuli/Experimental_stims/stool/ASTOOL22.jpg,/static/Category_learning/Stimuli/Experimental_stims/makeup compact/P109965_hero.jpg,0.0,123.356,0.356,0.0,makeup compact,stool,20.0,60.0,makeup compact5,stool4,40.0,40.0,,,,,,
147,,confirmation,,html-keyboard-response,147,291102,0.0-1.0-28.0-0.0-1.0-0.0,0,0,87963,,,,,,26.0,,,,,1.0,,,,,,,,,,,,,,,,,,124.5,1.144,,,,,,,,,,,,,,,
148,,isi,,html-keyboard-response,148,294606,0.0-1.0-28.0-0.0-2.0,0,0,87963,,,,,,26.0,,,,,1.0,,,,,,,,,,,,,,,,,,128.0,3.5,,,,,,,,,,,,,,,
149,,feedback,,html-keyboard-response,149,295610,0.0-1.0-28.0-0.0-3.0-0.0,0,0,87963,,,,,,26.0,,,,,1.0,,,,,,,,,,,,,,,,,,129.0,1.0,,,,,,,,,,,,,,,
150,,iti,,html-keyboard-response,150,296619,0.0-1.0-28.0-0.0-5.0,0,0,87963,,,,,,26.0,,,,,1.0,,,,,,,,,,,,,,,,,,130.0,1.0,,,,,,,,,,,,,,,
151,,choice,,html-keyboard-response,151,297196,0.0-1.0-29.0-0.0-0.0,0,0,87963,,571.0,,,75.0,27.0,27.0,1500.0,3500.0,0.0,1.0,0.0,40-80,,1.0,flashlight,small table,80.0,40.0,flashlight12,small table8,80.0,60.0,new05.jpg,ATABLE8.jpg,/static/Category_learning/Stimuli/Experimental_stims/flashlight/new05.jpg,/static/Category_learning/Stimuli/Experimental_stims/small table/ATABLE8.jpg,0.0,130.571,0.571,0.0,small table,flashlight,40.0,80.0,small table8,flashlight12,60.0,80.0,,,,,,
152,,confirmation,,html-keyboard-response,152,298135,0.0-1.0-29.0-0.0-1.0-0.0,0,0,87963,,,,,,27.0,,,,,1.0,,,,,,,,,,,,,,,,,,131.5,0.929,,,,,,,,,,,,,,,
153,,isi,,html-keyboard-response,153,299639,0.0-1.0-29.0-0.0-2.0,0,0,87963,,,,,,27.0,,,,,1.0,,,,,,,,,,,,,,,,,,133.0,1.5,,,,,,,,,,,,,,,
154,,feedback,,html-keyboard-response,154,300646,0.0-1.0-29.0-0.0-3.0-0.0,0,0,87963,,,,,,27.0,,,,,1.0,,,,,,,,,,,,,,,,,,134.0,1.0,,,,,,,,,,,,,,,
155,,iti,,html-keyboard-response,155,304158,0.0-1.0-29.0-0.0-5.0,0,0,87963,,,,,,27.0,,,,,1.0,,,,,,,,,,,,,,,,,,137.5,3.5,,,,,,,,,,,,,,,
156,,choice,,html-keyboard-response,156,304692,0.0-1.0-30.0-0.0-0.0,0,0,87963,,526.0,,,75.0,28.0,28.0,3000.0,3000.0,0.0,1.0,1.0,40-40,1.0,,nail polish,nail polish,40.0,40.0,nail polish12,nail polish5,40.0,40.0,laquerdUP.jpg,182_t.jpg,/static/Category_learning/Stimuli/Experimental_stims/nail polish/laquerdUP.jpg,/static/Category_learning/Stimuli/Experimental_stims/nail polish/182_t.jpg,0.0,138.026,0.526,0.0,nail polish,nail polish,40.0,40.0,nail polish5,nail polish12,40.0,40.0,,,,,,
157,,confirmation,,html-keyboard-response,157,305675,0.0-1.0-30.0-0.0-1.0-0.0,0,0,87963,,,,,,28.0,,,,,1.0,,,,,,,,,,,,,,,,,,139.0,0.974,,,,,,,,,,,,,,,
158,,isi,,html-keyboard-response,158,308680,0.0-1.0-30.0-0.0-2.0,0,0,87963,,,,,,28.0,,,,,1.0,,,,,,,,,,,,,,,,,,142.0,3.0,,,,,,,,,,,,,,,
159,,feedback,,html-keyboard-response,159,309688,0.0-1.0-30.0-0.0-3.0-0.0,0,0,87963,,,,,,28.0,,,,,1.0,,,,,,,,,,,,,,,,,,143.0,1.0,,,,,,,,,,,,,,,
160,,iti,,html-keyboard-response,160,312692,0.0-1.0-30.0-0.0-5.0,0,0,87963,,,,,,28.0,,,,,1.0,,,,,,,,,,,,,,,,,,146.0,3.0,,,,,,,,,,,,,,,
161,,choice,,html-keyboard-response,161,313136,0.0-1.0-31.0-0.0-0.0,0,0,87963,,436.0,,,75.0,29.0,29.0,3500.0,1000.0,0.0,1.0,0.0,20-80,,1.0,bongo,key chain,80.0,20.0,bongo8,key chain10,80.0,0.0,26390661.thl.jpg,Smurfs_Keychains_Smurf_Row_Boat.jpg,/static/Category_learning/Stimuli/Experimental_stims/bongo/26390661.thl.jpg,/static/Category_learning/Stimuli/Experimental_stims/key chain/Smurfs_Keychains_Smurf_Row_Boat.jpg,0.0,146.436,0.436,0.0,key chain,bongo,20.0,80.0,key chain10,bongo8,0.0,80.0,,,,,,
162,,confirmation,,html-keyboard-response,162,314205,0.0-1.0-31.0-0.0-1.0-0.0,0,0,87963,,,,,,29.0,,,,,1.0,,,,,,,,,,,,,,,,,,147.5,1.064,,,,,,,,,,,,,,,
163,,isi,,html-keyboard-response,163,317711,0.0-1.0-31.0-0.0-2.0,0,0,87963,,,,,,29.0,,,,,1.0,,,,,,,,,,,,,,,,,,151.0,3.5,,,,,,,,,,,,,,,
164,,feedback,,html-keyboard-response,164,318718,0.0-1.0-31.0-0.0-3.0-0.0,0,0,87963,,,,,,29.0,,,,,1.0,,,,,,,,,,,,,,,,,,152.0,1.0,,,,,,,,,,,,,,,
165,,iti,,html-keyboard-response,165,319722,0.0-1.0-31.0-0.0-5.0,0,0,87963,,,,,,29.0,,,,,1.0,,,,,,,,,,,,,,,,,,153.0,1.0,,,,,,,,,,,,,,,
166,,choice,,html-keyboard-response,166,321229,0.0-1.0-32.0-0.0-0.0,0,0,87963,,,,,,30.0,30.0,1000.0,2000.0,0.0,1.0,0.0,60-80,,0.0,tape,baby carriage,60.0,80.0,tape15,baby carriage10,80.0,100.0,MMMC15BK.jpg,peg_perego_uno_blu.jpg,/static/Category_learning/Stimuli/Experimental_stims/tape/MMMC15BK.jpg,/static/Category_learning/Stimuli/Experimental_stims/baby carriage/peg_perego_uno_blu.jpg,1.0,154.5,1.5,,,,,,,,,,,,,,,
167,,isi,,html-keyboard-response,167,322236,0.0-1.0-32.0-0.0-2.0,0,0,87963,,,,,,30.0,,,,,1.0,,,,,,,,,,,,,,,,,,155.5,1.0,,,,,,,,,,,,,,,
168,,no_response,,html-keyboard-response,168,323242,0.0-1.0-32.0-0.0-4.0-0.0,0,0,87963,,,,,,30.0,,,,,1.0,,,,,,,,,,,,,,,,,,156.5,1.0,,,,,,,,,,,,,,,
169,,iti,,html-keyboard-response,169,325276,0.0-1.0-32.0-0.0-5.0,0,0,87963,,,,,,30.0,,,,,1.0,,,,,,,,,,,,,,,,,,158.5,2.0,,,,,,,,,,,,,,,
170,,choice,,html-keyboard-response,170,325721,0.0-1.0-32.0-0.1-0.1,0,0,87963,,440.0,,,75.0,30.0,30.0,1000.0,2000.0,0.0,1.0,0.0,60-80,,0.0,tape,baby carriage,60.0,80.0,tape15,baby carriage10,80.0,100.0,MMMC15BK.jpg,peg_perego_uno_blu.jpg,/static/Category_learning/Stimuli/Experimental_stims/tape/MMMC15BK.jpg,/static/Category_learning/Stimuli/Experimental_stims/baby carriage/peg_perego_uno_blu.jpg,0.0,158.94,0.44,0.0,baby carriage,tape,80.0,60.0,baby carriage10,tape15,100.0,80.0,,,,,,
171,,confirmation,,html-keyboard-response,171,326787,0.0-1.0-32.0-0.1-1.1-0.1,0,0,87963,,,,,,30.0,,,,,1.0,,,,,,,,,,,,,,,,,,160.0,1.06,,,,,,,,,,,,,,,
172,,isi,,html-keyboard-response,172,328292,0.0-1.0-32.0-0.1-2.1,0,0,87963,,,,,,30.0,,,,,1.0,,,,,,,,,,,,,,,,,,161.5,1.5,,,,,,,,,,,,,,,
173,,feedback,,html-keyboard-response,173,329303,0.0-1.0-32.0-0.1-3.1-0.1,0,0,87963,,,,,,30.0,,,,,1.0,,,,,,,,,,,,,,,,,,162.5,1.0,,,,,,,,,,,,,,,
174,,iti,,html-keyboard-response,174,331308,0.0-1.0-32.0-0.1-5.1,0,0,87963,,,,,,30.0,,,,,1.0,,,,,,,,,,,,,,,,,,164.5,2.0,,,,,,,,,,,,,,,
175,,choice,,html-keyboard-response,175,331997,0.0-1.0-33.0-0.0-0.0,0,0,87963,,682.0,,,75.0,31.0,31.0,1000.0,1000.0,0.0,1.0,1.0,20-20,0.0,,hat,microscope,20.0,20.0,hat4,microscope15,20.0,40.0,JS370.jpg,Amicroscope23.jpg,/static/Category_learning/Stimuli/Experimental_stims/hat/JS370.jpg,/static/Category_learning/Stimuli/Experimental_stims/microscope/Amicroscope23.jpg,0.0,165.182,0.682,0.0,microscope,hat,20.0,20.0,microscope15,hat4,40.0,20.0,,,,,,
176,,confirmation,,html-keyboard-response,176,332857,0.0-1.0-33.0-0.0-1.0-0.0,0,0,87963,,,,,,31.0,,,,,1.0,,,,,,,,,,,,,,,,,,166.0,0.818,,,,,,,,,,,,,,,
177,,isi,,html-keyboard-response,177,333861,0.0-1.0-33.0-0.0-2.0,0,0,87963,,,,,,31.0,,,,,1.0,,,,,,,,,,,,,,,,,,167.0,1.0,,,,,,,,,,,,,,,
178,,feedback,,html-keyboard-response,178,334874,0.0-1.0-33.0-0.0-3.0-0.0,0,0,87963,,,,,,31.0,,,,,1.0,,,,,,,,,,,,,,,,,,168.0,1.0,,,,,,,,,,,,,,,
179,,iti,,html-keyboard-response,179,335879,0.0-1.0-33.0-0.0-5.0,0,0,87963,,,,,,31.0,,,,,1.0,,,,,,,,,,,,,,,,,,169.0,1.0,,,,,,,,,,,,,,,
180,,choice,,html-keyboard-response,180,336606,0.0-1.0-34.0-0.0-0.0,0,0,87963,,712.0,,,68.0,32.0,32.0,1000.0,1000.0,0.0,1.0,0.0,20-60,,0.0,frame,vase,20.0,60.0,frame4,vase9,40.0,60.0,AFRAME125.jpg,Avasewithang2.jpg,/static/Category_learning/Stimuli/Experimental_stims/frame/AFRAME125.jpg,/static/Category_learning/Stimuli/Experimental_stims/vase/Avasewithang2.jpg,0.0,169.712,0.712,1.0,frame,vase,20.0,60.0,frame4,vase9,40.0,60.0,,,,,,
181,,confirmation,,html-keyboard-response,181,337407,0.0-1.0-34.0-0.0-1.0-0.0,0,0,87963,,,,,,32.0,,,,,1.0,,,,,,,,,,,,,,,,,,170.5,0.788,,,,,,,,,,,,,,,
182,,isi,,html-keyboard-response,182,338411,0.0-1.0-34.0-0.0-2.0,0,0,87963,,,,,,32.0,,,,,1.0,,,,,,,,,,,,,,,,,,171.5,1.0,,,,,,,,,,,,,,,
183,,feedback,,html-keyboard-response,183,339421,0.0-1.0-34.0-0.0-3.0-0.0,0,0,87963,,,,,,32.0,,,,,1.0,,,,,,,,,,,,,,,,,,172.5,1.0,,,,,,,,,,,,,,,
184,,iti,,html-keyboard-response,184,340424,0.0-1.0-34.0-0.0-5.0,0,0,87963,,,,,,32.0,,,,,1.0,,,,,,,,,,,,,,,,,,173.5,1.0,,,,,,,,,,,,,,,
185,,choice,,html-keyboard-response,185,341076,0.0-1.0-35.0-0.0-0.0,0,0,87963,,647.0,,,75.0,33.0,33.0,1000.0,1500.0,0.0,1.0,0.0,40-40,,,power strip,necklace,40.0,40.0,power strip5,necklace3,60.0,20.0,93e4a283-bcd6-4ad1-8add-339658cda0fc_400.jpg,26388201.thl.jpg,/static/Category_learning/Stimuli/Experimental_stims/power strip/93e4a283-bcd6-4ad1-8add-339658cda0fc_400.jpg,/static/Category_learning/Stimuli/Experimental_stims/necklace/26388201.thl.jpg,0.0,174.147,0.647,0.0,necklace,power strip,40.0,40.0,necklace3,power strip5,20.0,60.0,,,,,,
186,,confirmation,,html-keyboard-response,186,341937,0.0-1.0-35.0-0.0-1.0-0.0,0,0,87963,,,,,,33.0,,,,,1.0,,,,,,,,,,,,,,,,,,175.0,0.853,,,,,,,,,,,,,,,
187,,isi,,html-keyboard-response,187,342941,0.0-1.0-35.0-0.0-2.0,0,0,87963,,,,,,33.0,,,,,1.0,,,,,,,,,,,,,,,,,,176.0,1.0,,,,,,,,,,,,,,,
188,,feedback,,html-keyboard-response,188,343947,0.0-1.0-35.0-0.0-3.0-0.0,0,0,87963,,,,,,33.0,,,,,1.0,,,,,,,,,,,,,,,,,,177.0,1.0,,,,,,,,,,,,,,,
189,,iti,,html-keyboard-response,189,345453,0.0-1.0-35.0-0.0-5.0,0,0,87963,,,,,,33.0,,,,,1.0,,,,,,,,,,,,,,,,,,178.5,1.5,,,,,,,,,,,,,,,
190,,choice,,html-keyboard-response,190,346076,0.0-1.0-36.0-0.0-0.0,0,0,87963,,618.0,,,75.0,34.0,34.0,2000.0,3000.0,0.0,1.0,0.0,40-60,,0.0,patio lounge chair,yarn,40.0,60.0,patio lounge chair14,yarn8,40.0,40.0,2987951.jpg,smonlineyarn-285x250.jpg,/static/Category_learning/Stimuli/Experimental_stims/patio lounge chair/2987951.jpg,/static/Category_learning/Stimuli/Experimental_stims/yarn/smonlineyarn-285x250.jpg,0.0,179.118,0.618,0.0,yarn,patio lounge chair,60.0,40.0,yarn8,patio lounge chair14,40.0,40.0,,,,,,
191,,confirmation,,html-keyboard-response,191,346966,0.0-1.0-36.0-0.0-1.0-0.0,0,0,87963,,,,,,34.0,,,,,1.0,,,,,,,,,,,,,,,,,,180.0,0.882,,,,,,,,,,,,,,,
192,,isi,,html-keyboard-response,192,348973,0.0-1.0-36.0-0.0-2.0,0,0,87963,,,,,,34.0,,,,,1.0,,,,,,,,,,,,,,,,,,182.0,2.0,,,,,,,,,,,,,,,
193,,feedback,,html-keyboard-response,193,349977,0.0-1.0-36.0-0.0-3.0-0.0,0,0,87963,,,,,,34.0,,,,,1.0,,,,,,,,,,,,,,,,,,183.0,1.0,,,,,,,,,,,,,,,
194,,iti,,html-keyboard-response,194,352986,0.0-1.0-36.0-0.0-5.0,0,0,87963,,,,,,34.0,,,,,1.0,,,,,,,,,,,,,,,,,,186.0,3.0,,,,,,,,,,,,,,,
195,,choice,,html-keyboard-response,195,353490,0.0-1.0-37.0-0.0-0.0,0,0,87963,,497.0,,,75.0,35.0,35.0,1500.0,3500.0,0.0,1.0,1.0,60-60,1.0,,yarn,yarn,60.0,60.0,yarn15,yarn8,80.0,40.0,rainbowscarf-600x394.jpg,smonlineyarn-285x250.jpg,/static/Category_learning/Stimuli/Experimental_stims/yarn/rainbowscarf-600x394.jpg,/static/Category_learning/Stimuli/Experimental_stims/yarn/smonlineyarn-285x250.jpg,0.0,186.497,0.497,0.0,yarn,yarn,60.0,60.0,yarn8,yarn15,40.0,80.0,,,,,,
196,,confirmation,,html-keyboard-response,196,354504,0.0-1.0-37.0-0.0-1.0-0.0,0,0,87963,,,,,,35.0,,,,,1.0,,,,,,,,,,,,,,,,,,187.5,1.003,,,,,,,,,,,,,,,
197,,isi,,html-keyboard-response,197,356008,0.0-1.0-37.0-0.0-2.0,0,0,87963,,,,,,35.0,,,,,1.0,,,,,,,,,,,,,,,,,,189.0,1.5,,,,,,,,,,,,,,,
198,,feedback,,html-keyboard-response,198,357012,0.0-1.0-37.0-0.0-3.0-0.0,0,0,87963,,,,,,35.0,,,,,1.0,,,,,,,,,,,,,,,,,,190.0,1.0,,,,,,,,,,,,,,,
199,,iti,,html-keyboard-response,199,360519,0.0-1.0-37.0-0.0-5.0,0,0,87963,,,,,,35.0,,,,,1.0,,,,,,,,,,,,,,,,,,193.5,3.5,,,,,,,,,,,,,,,
200,,choice,,html-keyboard-response,200,361364,0.0-1.0-38.0-0.0-0.0,0,0,87963,,838.0,,,68.0,36.0,36.0,1500.0,2000.0,0.0,1.0,1.0,40-60,0.0,,tape,necklace,60.0,40.0,tape7,necklace3,60.0,20.0,tape dispenser.jpg,26388201.thl.jpg,/static/Category_learning/Stimuli/Experimental_stims/tape/tape dispenser.jpg,/static/Category_learning/Stimuli/Experimental_stims/necklace/26388201.thl.jpg,0.0,194.338,0.838,1.0,tape,necklace,60.0,40.0,tape7,necklace3,60.0,20.0,,,,,,
201,,confirmation,,html-keyboard-response,201,362034,0.0-1.0-38.0-0.0-1.0-0.0,0,0,87963,,,,,,36.0,,,,,1.0,,,,,,,,,,,,,,,,,,195.0,0.662,,,,,,,,,,,,,,,
202,,isi,,html-keyboard-response,202,363540,0.0-1.0-38.0-0.0-2.0,0,0,87963,,,,,,36.0,,,,,1.0,,,,,,,,,,,,,,,,,,196.5,1.5,,,,,,,,,,,,,,,
203,,feedback,,html-keyboard-response,203,364548,0.0-1.0-38.0-0.0-3.0-0.0,0,0,87963,,,,,,36.0,,,,,1.0,,,,,,,,,,,,,,,,,,197.5,1.0,,,,,,,,,,,,,,,
204,,iti,,html-keyboard-response,204,366558,0.0-1.0-38.0-0.0-5.0,0,0,87963,,,,,,36.0,,,,,1.0,,,,,,,,,,,,,,,,,,199.5,2.0,,,,,,,,,,,,,,,
205,,choice,,html-keyboard-response,205,367095,0.0-1.0-39.0-0.0-0.0,0,0,87963,,531.0,,,75.0,37.0,37.0,1000.0,1000.0,0.0,1.0,0.0,60-60,,,tape,train,60.0,60.0,tape10,train6,80.0,40.0,26377601.thl.jpg,train9.jpg,/static/Category_learning/Stimuli/Experimental_stims/tape/26377601.thl.jpg,/static/Category_learning/Stimuli/Experimental_stims/train/train9.jpg,0.0,200.031,0.531,0.0,train,tape,60.0,60.0,train6,tape10,40.0,80.0,,,,,,
206,,confirmation,,html-keyboard-response,206,368071,0.0-1.0-39.0-0.0-1.0-0.0,0,0,87963,,,,,,37.0,,,,,1.0,,,,,,,,,,,,,,,,,,201.0,0.969,,,,,,,,,,,,,,,
207,,isi,,html-keyboard-response,207,369076,0.0-1.0-39.0-0.0-2.0,0,0,87963,,,,,,37.0,,,,,1.0,,,,,,,,,,,,,,,,,,202.0,1.0,,,,,,,,,,,,,,,
208,,feedback,,html-keyboard-response,208,370081,0.0-1.0-39.0-0.0-3.0-0.0,0,0,87963,,,,,,37.0,,,,,1.0,,,,,,,,,,,,,,,,,,203.0,1.0,,,,,,,,,,,,,,,
209,,iti,,html-keyboard-response,209,371090,0.0-1.0-39.0-0.0-5.0,0,0,87963,,,,,,37.0,,,,,1.0,,,,,,,,,,,,,,,,,,204.0,1.0,,,,,,,,,,,,,,,
210,,choice,,html-keyboard-response,210,371623,0.0-1.0-40.0-0.0-0.0,0,0,87963,,527.0,,,68.0,38.0,38.0,1500.0,3500.0,0.0,1.0,0.0,40-80,,0.0,patio lounge chair,bowl,40.0,80.0,patio lounge chair8,bowl6,20.0,80.0,43-1.jpg,Abowl59.jpg,/static/Category_learning/Stimuli/Experimental_stims/patio lounge chair/43-1.jpg,/static/Category_learning/Stimuli/Experimental_stims/bowl/Abowl59.jpg,0.0,204.527,0.527,1.0,patio lounge chair,bowl,40.0,80.0,patio lounge chair8,bowl6,20.0,80.0,,,,,,
211,,confirmation,,html-keyboard-response,211,372604,0.0-1.0-40.0-0.0-1.0-0.0,0,0,87963,,,,,,38.0,,,,,1.0,,,,,,,,,,,,,,,,,,205.5,0.973,,,,,,,,,,,,,,,
212,,isi,,html-keyboard-response,212,374108,0.0-1.0-40.0-0.0-2.0,0,0,87963,,,,,,38.0,,,,,1.0,,,,,,,,,,,,,,,,,,207.0,1.5,,,,,,,,,,,,,,,
213,,feedback,,html-keyboard-response,213,375113,0.0-1.0-40.0-0.0-3.0-0.0,0,0,87963,,,,,,38.0,,,,,1.0,,,,,,,,,,,,,,,,,,208.0,1.0,,,,,,,,,,,,,,,
214,,iti,,html-keyboard-response,214,378619,0.0-1.0-40.0-0.0-5.0,0,0,87963,,,,,,38.0,,,,,1.0,,,,,,,,,,,,,,,,,,211.5,3.5,,,,,,,,,,,,,,,
215,,choice,,html-keyboard-response,215,379094,0.0-1.0-41.0-0.0-0.0,0,0,87963,,461.0,,,75.0,39.0,39.0,2000.0,2000.0,0.0,1.0,1.0,40-40,1.0,,patio lounge chair,patio lounge chair,40.0,40.0,patio lounge chair11,patio lounge chair8,60.0,20.0,51830.jpg,43-1.jpg,/static/Category_learning/Stimuli/Experimental_stims/patio lounge chair/51830.jpg,/static/Category_learning/Stimuli/Experimental_stims/patio lounge chair/43-1.jpg,0.0,211.961,0.461,0.0,patio lounge chair,patio lounge chair,40.0,40.0,patio lounge chair8,patio lounge chair11,20.0,60.0,,,,,,
216,,confirmation,,html-keyboard-response,216,380141,0.0-1.0-41.0-0.0-1.0-0.0,0,0,87963,,,,,,39.0,,,,,1.0,,,,,,,,,,,,,,,,,,213.0,1.039,,,,,,,,,,,,,,,
217,,isi,,html-keyboard-response,217,382145,0.0-1.0-41.0-0.0-2.0,0,0,87963,,,,,,39.0,,,,,1.0,,,,,,,,,,,,,,,,,,215.0,2.0,,,,,,,,,,,,,,,
218,,feedback,,html-keyboard-response,218,383157,0.0-1.0-41.0-0.0-3.0-0.0,0,0,87963,,,,,,39.0,,,,,1.0,,,,,,,,,,,,,,,,,,216.0,1.0,,,,,,,,,,,,,,,
219,,iti,,html-keyboard-response,219,385161,0.0-1.0-41.0-0.0-5.0,0,0,87963,,,,,,39.0,,,,,1.0,,,,,,,,,,,,,,,,,,218.0,2.0,,,,,,,,,,,,,,,
220,,choice,,html-keyboard-response,220,385566,0.0-1.0-42.0-0.0-0.0,0,0,87963,,399.0,,,68.0,40.0,40.0,1000.0,1500.0,0.0,1.0,0.0,40-60,,0.0,nail polish,watch,40.0,60.0,nail polish14,watch15,20.0,80.0,38031405.JPG,20-171-6.jpg,/static/Category_learning/Stimuli/Experimental_stims/nail polish/38031405.JPG,/static/Category_learning/Stimuli/Experimental_stims/watch/20-171-6.jpg,0.0,218.399,0.399,1.0,nail polish,watch,40.0,60.0,nail polish14,watch15,20.0,80.0,,,,,,
221,,confirmation,,html-keyboard-response,221,386675,0.0-1.0-42.0-0.0-1.0-0.0,0,0,87963,,,,,,40.0,,,,,1.0,,,,,,,,,,,,,,,,,,219.5,1.101,,,,,,,,,,,,,,,
222,,isi,,html-keyboard-response,222,387679,0.0-1.0-42.0-0.0-2.0,0,0,87963,,,,,,40.0,,,,,1.0,,,,,,,,,,,,,,,,,,220.5,1.0,,,,,,,,,,,,,,,
223,,feedback,,html-keyboard-response,223,388686,0.0-1.0-42.0-0.0-3.0-0.0,0,0,87963,,,,,,40.0,,,,,1.0,,,,,,,,,,,,,,,,,,221.5,1.0,,,,,,,,,,,,,,,
224,,iti,,html-keyboard-response,224,390191,0.0-1.0-42.0-0.0-5.0,0,0,87963,,,,,,40.0,,,,,1.0,,,,,,,,,,,,,,,,,,223.0,1.5,,,,,,,,,,,,,,,
225,,choice,,html-keyboard-response,225,390597,0.0-1.0-43.0-0.0-0.0,0,0,87963,,401.0,,,75.0,41.0,41.0,1500.0,3000.0,0.0,1.0,0.0,20-20,,,hammer,license plate,20.0,20.0,hammer5,license plate14,20.0,0.0,hammer02.jpg,fl-hel-bel.jpg,/static/Category_learning/Stimuli/Experimental_stims/hammer/hammer02.jpg,/static/Category_learning/Stimuli/Experimental_stims/license plate/fl-hel-bel.jpg,0.0,223.401,0.401,0.0,license plate,hammer,20.0,20.0,license plate14,hammer5,0.0,20.0,,,,,,
226,,confirmation,,html-keyboard-response,226,391704,0.0-1.0-43.0-0.0-1.0-0.0,0,0,87963,,,,,,41.0,,,,,1.0,,,,,,,,,,,,,,,,,,224.5,1.099,,,,,,,,,,,,,,,
227,,isi,,html-keyboard-response,227,393209,0.0-1.0-43.0-0.0-2.0,0,0,87963,,,,,,41.0,,,,,1.0,,,,,,,,,,,,,,,,,,226.0,1.5,,,,,,,,,,,,,,,
228,,feedback,,html-keyboard-response,228,394213,0.0-1.0-43.0-0.0-3.0-0.0,0,0,87963,,,,,,41.0,,,,,1.0,,,,,,,,,,,,,,,,,,227.0,1.0,,,,,,,,,,,,,,,
229,,iti,,html-keyboard-response,229,397219,0.0-1.0-43.0-0.0-5.0,0,0,87963,,,,,,41.0,,,,,1.0,,,,,,,,,,,,,,,,,,230.0,3.0,,,,,,,,,,,,,,,
230,,choice,,html-keyboard-response,230,397541,0.0-1.0-44.0-0.0-0.0,0,0,87963,,313.0,,,68.0,42.0,42.0,1500.0,1000.0,0.0,1.0,0.0,40-40,,,poker card,necklace,40.0,40.0,poker card15,necklace9,40.0,60.0,9816946.thl.jpg,ANECKLACE.jpg,/static/Category_learning/Stimuli/Experimental_stims/poker card/9816946.thl.jpg,/static/Category_learning/Stimuli/Experimental_stims/necklace/ANECKLACE.jpg,0.0,230.313,0.313,1.0,poker card,necklace,40.0,40.0,poker card15,necklace9,40.0,60.0,,,,,,
231,,confirmation,,html-keyboard-response,231,398736,0.0-1.0-44.0-0.0-1.0-0.0,0,0,87963,,,,,,42.0,,,,,1.0,,,,,,,,,,,,,,,,,,231.5,1.187,,,,,,,,,,,,,,,
232,,isi,,html-keyboard-response,232,400241,0.0-1.0-44.0-0.0-2.0,0,0,87963,,,,,,42.0,,,,,1.0,,,,,,,,,,,,,,,,,,233.0,1.5,,,,,,,,,,,,,,,
233,,feedback,,html-keyboard-response,233,401245,0.0-1.0-44.0-0.0-3.0-0.0,0,0,87963,,,,,,42.0,,,,,1.0,,,,,,,,,,,,,,,,,,234.0,1.0,,,,,,,,,,,,,,,
234,,iti,,html-keyboard-response,234,402258,0.0-1.0-44.0-0.0-5.0,0,0,87963,,,,,,42.0,,,,,1.0,,,,,,,,,,,,,,,,,,235.0,1.0,,,,,,,,,,,,,,,
235,,choice,,html-keyboard-response,235,402990,0.0-1.0-45.0-0.0-0.0,0,0,87963,,725.0,,,75.0,43.0,43.0,1000.0,3500.0,0.0,1.0,0.0,20-20,,,microscope,hammer,20.0,20.0,microscope5,hammer11,0.0,0.0,emMicroscope.jpg,8oz-hammer-copy.jpg,/static/Category_learning/Stimuli/Experimental_stims/microscope/emMicroscope.jpg,/static/Category_learning/Stimuli/Experimental_stims/hammer/8oz-hammer-copy.jpg,0.0,235.725,0.725,0.0,hammer,microscope,20.0,20.0,hammer11,microscope5,0.0,0.0,,,,,,
236,,confirmation,,html-keyboard-response,236,403771,0.0-1.0-45.0-0.0-1.0-0.0,0,0,87963,,,,,,43.0,,,,,1.0,,,,,,,,,,,,,,,,,,236.5,0.775,,,,,,,,,,,,,,,
237,,isi,,html-keyboard-response,237,404775,0.0-1.0-45.0-0.0-2.0,0,0,87963,,,,,,43.0,,,,,1.0,,,,,,,,,,,,,,,,,,237.5,1.0,,,,,,,,,,,,,,,
238,,feedback,,html-keyboard-response,238,405779,0.0-1.0-45.0-0.0-3.0-0.0,0,0,87963,,,,,,43.0,,,,,1.0,,,,,,,,,,,,,,,,,,238.5,1.0,,,,,,,,,,,,,,,
239,,iti,,html-keyboard-response,239,409287,0.0-1.0-45.0-0.0-5.0,0,0,87963,,,,,,43.0,,,,,1.0,,,,,,,,,,,,,,,,,,242.0,3.5,,,,,,,,,,,,,,,
240,,choice,,html-keyboard-response,240,409709,0.0-1.0-46.0-0.0-0.0,0,0,87963,,415.0,,,75.0,44.0,44.0,1000.0,1000.0,0.0,1.0,1.0,20-20,1.0,,hammer,hammer,20.0,20.0,hammer11,hammer15,0.0,0.0,8oz-hammer-copy.jpg,Vaughan-32-oz-Hickory-Handle-Ball-Pein-Hammer-S432-B0001LRUJM-L-ARCQ0EBO8TR73_.jpg,/static/Category_learning/Stimuli/Experimental_stims/hammer/8oz-hammer-copy.jpg,/static/Category_learning/Stimuli/Experimental_stims/hammer/Vaughan-32-oz-Hickory-Handle-Ball-Pein-Hammer-S432-B0001LRUJM-L-ARCQ0EBO8TR73_.jpg,0.0,242.415,0.415,0.0,hammer,hammer,20.0,20.0,hammer15,hammer11,0.0,0.0,,,,,,
241,,confirmation,,html-keyboard-response,241,410799,0.0-1.0-46.0-0.0-1.0-0.0,0,0,87963,,,,,,44.0,,,,,1.0,,,,,,,,,,,,,,,,,,243.5,1.085,,,,,,,,,,,,,,,
242,,isi,,html-keyboard-response,242,411803,0.0-1.0-46.0-0.0-2.0,0,0,87963,,,,,,44.0,,,,,1.0,,,,,,,,,,,,,,,,,,244.5,1.0,,,,,,,,,,,,,,,
243,,feedback,,html-keyboard-response,243,412807,0.0-1.0-46.0-0.0-3.0-0.0,0,0,87963,,,,,,44.0,,,,,1.0,,,,,,,,,,,,,,,,,,245.5,1.0,,,,,,,,,,,,,,,
244,,iti,,html-keyboard-response,244,413811,0.0-1.0-46.0-0.0-5.0,0,0,87963,,,,,,44.0,,,,,1.0,,,,,,,,,,,,,,,,,,246.5,1.0,,,,,,,,,,,,,,,
245,,choice,,html-keyboard-response,245,414676,0.0-1.0-47.0-0.0-0.0,0,0,87963,,858.0,,,75.0,45.0,45.0,1000.0,1500.0,0.0,1.0,0.0,80-80,,,baby carriage,fan,80.0,80.0,baby carriage8,fan7,60.0,80.0,peg_perego_uno_revi_black.jpg,250679_lg.jpg,/static/Category_learning/Stimuli/Experimental_stims/baby carriage/peg_perego_uno_revi_black.jpg,/static/Category_learning/Stimuli/Experimental_stims/fan/250679_lg.jpg,0.0,247.358,0.858,0.0,fan,baby carriage,80.0,80.0,fan7,baby carriage8,80.0,60.0,,,,,,
246,,confirmation,,html-keyboard-response,246,415322,0.0-1.0-47.0-0.0-1.0-0.0,0,0,87963,,,,,,45.0,,,,,1.0,,,,,,,,,,,,,,,,,,248.0,0.642,,,,,,,,,,,,,,,
247,,isi,,html-keyboard-response,247,416326,0.0-1.0-47.0-0.0-2.0,0,0,87963,,,,,,45.0,,,,,1.0,,,,,,,,,,,,,,,,,,249.0,1.0,,,,,,,,,,,,,,,
248,,feedback,,html-keyboard-response,248,417334,0.0-1.0-47.0-0.0-3.0-0.0,0,0,87963,,,,,,45.0,,,,,1.0,,,,,,,,,,,,,,,,,,250.0,1.0,,,,,,,,,,,,,,,
249,,iti,,html-keyboard-response,249,418839,0.0-1.0-47.0-0.0-5.0,0,0,87963,,,,,,45.0,,,,,1.0,,,,,,,,,,,,,,,,,,251.5,1.5,,,,,,,,,,,,,,,
250,,choice,,html-keyboard-response,250,419621,0.0-1.0-48.0-0.0-0.0,0,0,87963,,777.0,,,68.0,46.0,46.0,2000.0,1000.0,0.0,1.0,0.0,40-60,,0.0,seashell,telescope,40.0,60.0,seashell1,telescope12,40.0,40.0,Aseashe34.jpg,Junior Land and Sky Telescope.jpg,/static/Category_learning/Stimuli/Experimental_stims/seashell/Aseashe34.jpg,/static/Category_learning/Stimuli/Experimental_stims/telescope/Junior Land and Sky Telescope.jpg,0.0,252.277,0.777,1.0,seashell,telescope,40.0,60.0,seashell1,telescope12,40.0,40.0,,,,,,
251,,confirmation,,html-keyboard-response,251,420351,0.0-1.0-48.0-0.0-1.0-0.0,0,0,87963,,,,,,46.0,,,,,1.0,,,,,,,,,,,,,,,,,,253.0,0.723,,,,,,,,,,,,,,,
252,,isi,,html-keyboard-response,252,422356,0.0-1.0-48.0-0.0-2.0,0,0,87963,,,,,,46.0,,,,,1.0,,,,,,,,,,,,,,,,,,255.0,2.0,,,,,,,,,,,,,,,
253,,feedback,,html-keyboard-response,253,423360,0.0-1.0-48.0-0.0-3.0-0.0,0,0,87963,,,,,,46.0,,,,,1.0,,,,,,,,,,,,,,,,,,256.0,1.0,,,,,,,,,,,,,,,
254,,iti,,html-keyboard-response,254,424371,0.0-1.0-48.0-0.0-5.0,0,0,87963,,,,,,46.0,,,,,1.0,,,,,,,,,,,,,,,,,,257.0,1.0,,,,,,,,,,,,,,,
255,,choice,,html-keyboard-response,255,425860,0.0-1.0-49.0-0.0-0.0,0,0,87963,,1482.0,,,75.0,47.0,47.0,2000.0,1000.0,0.0,1.0,0.0,20-40,,1.0,small table,hat,40.0,20.0,small table2,hat7,60.0,20.0,Atable126.jpg,ASTRHATFL.jpg,/static/Category_learning/Stimuli/Experimental_stims/small table/Atable126.jpg,/static/Category_learning/Stimuli/Experimental_stims/hat/ASTRHATFL.jpg,0.0,258.482,1.482,0.0,hat,small table,20.0,40.0,hat7,small table2,20.0,60.0,,,,,,
256,,confirmation,,html-keyboard-response,256,425882,0.0-1.0-49.0-0.0-1.0-0.0,0,0,87963,,,,,,47.0,,,,,1.0,,,,,,,,,,,,,,,,,,258.5,0.018,,,,,,,,,,,,,,,
257,,isi,,html-keyboard-response,257,427887,0.0-1.0-49.0-0.0-2.0,0,0,87963,,,,,,47.0,,,,,1.0,,,,,,,,,,,,,,,,,,260.5,2.0,,,,,,,,,,,,,,,
258,,feedback,,html-keyboard-response,258,428892,0.0-1.0-49.0-0.0-3.0-0.0,0,0,87963,,,,,,47.0,,,,,1.0,,,,,,,,,,,,,,,,,,261.5,1.0,,,,,,,,,,,,,,,
259,,iti,,html-keyboard-response,259,429895,0.0-1.0-49.0-0.0-5.0,0,0,87963,,,,,,47.0,,,,,1.0,,,,,,,,,,,,,,,,,,262.5,1.0,,,,,,,,,,,,,,,
260,,choice,,html-keyboard-response,260,430447,0.0-1.0-50.0-0.0-0.0,0,0,87963,,544.0,,,68.0,48.0,48.0,1000.0,1500.0,0.0,1.0,0.0,20-60,,1.0,tape,hammer,60.0,20.0,tape2,hammer10,40.0,40.0,Tape_Dispenser.jpg,Tabla Hammer.JPG,/static/Category_learning/Stimuli/Experimental_stims/tape/Tape_Dispenser.jpg,/static/Category_learning/Stimuli/Experimental_stims/hammer/Tabla Hammer.JPG,0.0,263.044,0.544,1.0,tape,hammer,60.0,20.0,tape2,hammer10,40.0,40.0,,,,,,
261,,confirmation,,html-keyboard-response,261,431409,0.0-1.0-50.0-0.0-1.0-0.0,0,0,87963,,,,,,48.0,,,,,1.0,,,,,,,,,,,,,,,,,,264.0,0.956,,,,,,,,,,,,,,,
262,,isi,,html-keyboard-response,262,432412,0.0-1.0-50.0-0.0-2.0,0,0,87963,,,,,,48.0,,,,,1.0,,,,,,,,,,,,,,,,,,265.0,1.0,,,,,,,,,,,,,,,
263,,feedback,,html-keyboard-response,263,433424,0.0-1.0-50.0-0.0-3.0-0.0,0,0,87963,,,,,,48.0,,,,,1.0,,,,,,,,,,,,,,,,,,266.0,1.0,,,,,,,,,,,,,,,
264,,iti,,html-keyboard-response,264,434928,0.0-1.0-50.0-0.0-5.0,0,0,87963,,,,,,48.0,,,,,1.0,,,,,,,,,,,,,,,,,,267.5,1.5,,,,,,,,,,,,,,,
265,,choice,,html-keyboard-response,265,435942,0.0-1.0-51.0-0.0-0.0,0,0,87963,,1009.0,,,75.0,49.0,49.0,1500.0,1500.0,0.0,1.0,1.0,40-40,1.0,,seashell,seashell,40.0,40.0,seashell1,seashell2,40.0,20.0,Aseashe34.jpg,ph_stri_seashell.jpg,/static/Category_learning/Stimuli/Experimental_stims/seashell/Aseashe34.jpg,/static/Category_learning/Stimuli/Experimental_stims/seashell/ph_stri_seashell.jpg,0.0,268.509,1.009,0.0,seashell,seashell,40.0,40.0,seashell2,seashell1,20.0,40.0,,,,,,
266,,confirmation,,html-keyboard-response,266,436440,0.0-1.0-51.0-0.0-1.0-0.0,0,0,87963,,,,,,49.0,,,,,1.0,,,,,,,,,,,,,,,,,,269.0,0.491,,,,,,,,,,,,,,,
267,,isi,,html-keyboard-response,267,437945,0.0-1.0-51.0-0.0-2.0,0,0,87963,,,,,,49.0,,,,,1.0,,,,,,,,,,,,,,,,,,270.5,1.5,,,,,,,,,,,,,,,
268,,feedback,,html-keyboard-response,268,438954,0.0-1.0-51.0-0.0-3.0-0.0,0,0,87963,,,,,,49.0,,,,,1.0,,,,,,,,,,,,,,,,,,271.5,1.0,,,,,,,,,,,,,,,
269,,iti,,html-keyboard-response,269,440459,0.0-1.0-51.0-0.0-5.0,0,0,87963,,,,,,49.0,,,,,1.0,,,,,,,,,,,,,,,,,,273.0,1.5,,,,,,,,,,,,,,,
270,,choice,,html-keyboard-response,270,440974,0.0-1.0-52.0-0.0-0.0,0,0,87963,,507.0,,,75.0,50.0,50.0,2000.0,1000.0,0.0,1.0,1.0,20-20,0.0,,makeup compact,license plate,20.0,20.0,makeup compact5,license plate14,40.0,0.0,P109965_hero.jpg,fl-hel-bel.jpg,/static/Category_learning/Stimuli/Experimental_stims/makeup compact/P109965_hero.jpg,/static/Category_learning/Stimuli/Experimental_stims/license plate/fl-hel-bel.jpg,0.0,273.507,0.507,0.0,license plate,makeup compact,20.0,20.0,license plate14,makeup compact5,0.0,40.0,,,,,,
271,,confirmation,,html-keyboard-response,271,441974,0.0-1.0-52.0-0.0-1.0-0.0,0,0,87963,,,,,,50.0,,,,,1.0,,,,,,,,,,,,,,,,,,274.5,0.993,,,,,,,,,,,,,,,
272,,isi,,html-keyboard-response,272,443977,0.0-1.0-52.0-0.0-2.0,0,0,87963,,,,,,50.0,,,,,1.0,,,,,,,,,,,,,,,,,,276.5,2.0,,,,,,,,,,,,,,,
273,,feedback,,html-keyboard-response,273,444988,0.0-1.0-52.0-0.0-3.0-0.0,0,0,87963,,,,,,50.0,,,,,1.0,,,,,,,,,,,,,,,,,,277.5,1.0,,,,,,,,,,,,,,,
274,,iti,,html-keyboard-response,274,445993,0.0-1.0-52.0-0.0-5.0,0,0,87963,,,,,,50.0,,,,,1.0,,,,,,,,,,,,,,,,,,278.5,1.0,,,,,,,,,,,,,,,
275,,choice,,html-keyboard-response,275,446708,0.0-1.0-53.0-0.0-0.0,0,0,87963,,708.0,,,68.0,51.0,51.0,3500.0,1500.0,0.0,1.0,0.0,20-80,,1.0,bench,frame,80.0,20.0,bench6,frame7,60.0,20.0,26370121.thl.jpg,AFRAME152.jpg,/static/Category_learning/Stimuli/Experimental_stims/bench/26370121.thl.jpg,/static/Category_learning/Stimuli/Experimental_stims/frame/AFRAME152.jpg,0.0,279.208,0.708,1.0,bench,frame,80.0,20.0,bench6,frame7,60.0,20.0,,,,,,
276,,confirmation,,html-keyboard-response,276,447507,0.0-1.0-53.0-0.0-1.0-0.0,0,0,87963,,,,,,51.0,,,,,1.0,,,,,,,,,,,,,,,,,,280.0,0.792,,,,,,,,,,,,,,,
277,,isi,,html-keyboard-response,277,451011,0.0-1.0-53.0-0.0-2.0,0,0,87963,,,,,,51.0,,,,,1.0,,,,,,,,,,,,,,,,,,283.5,3.5,,,,,,,,,,,,,,,
278,,feedback,,html-keyboard-response,278,452024,0.0-1.0-53.0-0.0-3.0-0.0,0,0,87963,,,,,,51.0,,,,,1.0,,,,,,,,,,,,,,,,,,284.5,1.0,,,,,,,,,,,,,,,
279,,iti,,html-keyboard-response,279,453530,0.0-1.0-53.0-0.0-5.0,0,0,87963,,,,,,51.0,,,,,1.0,,,,,,,,,,,,,,,,,,286.0,1.5,,,,,,,,,,,,,,,
280,,choice,,html-keyboard-response,280,454029,0.0-1.0-54.0-0.0-0.0,0,0,87963,,489.0,,,75.0,52.0,52.0,1000.0,1000.0,0.0,1.0,0.0,20-80,,1.0,bench,motorcycle,80.0,20.0,bench5,motorcycle7,60.0,20.0,APARKBEN8.jpg,MotoSmall.jpg,/static/Category_learning/Stimuli/Experimental_stims/bench/APARKBEN8.jpg,/static/Category_learning/Stimuli/Experimental_stims/motorcycle/MotoSmall.jpg,0.0,286.489,0.489,0.0,motorcycle,bench,20.0,80.0,motorcycle7,bench5,20.0,60.0,,,,,,
281,,confirmation,,html-keyboard-response,281,455044,0.0-1.0-54.0-0.0-1.0-0.0,0,0,87963,,,,,,52.0,,,,,1.0,,,,,,,,,,,,,,,,,,287.5,1.011,,,,,,,,,,,,,,,
282,,isi,,html-keyboard-response,282,456051,0.0-1.0-54.0-0.0-2.0,0,0,87963,,,,,,52.0,,,,,1.0,,,,,,,,,,,,,,,,,,288.5,1.0,,,,,,,,,,,,,,,
283,,feedback,,html-keyboard-response,283,457063,0.0-1.0-54.0-0.0-3.0-0.0,0,0,87963,,,,,,52.0,,,,,1.0,,,,,,,,,,,,,,,,,,289.5,1.0,,,,,,,,,,,,,,,
284,,iti,,html-keyboard-response,284,458071,0.0-1.0-54.0-0.0-5.0,0,0,87963,,,,,,52.0,,,,,1.0,,,,,,,,,,,,,,,,,,290.5,1.0,,,,,,,,,,,,,,,
285,,choice,,html-keyboard-response,285,458629,0.0-1.0-55.0-0.0-0.0,0,0,87963,,551.0,,,68.0,53.0,53.0,2000.0,2000.0,0.0,1.0,0.0,60-60,,,stool,yarn,60.0,60.0,stool9,yarn9,60.0,40.0,ASTOOL7.jpg,Aballofyarn26.jpg,/static/Category_learning/Stimuli/Experimental_stims/stool/ASTOOL7.jpg,/static/Category_learning/Stimuli/Experimental_stims/yarn/Aballofyarn26.jpg,0.0,291.051,0.551,1.0,stool,yarn,60.0,60.0,stool9,yarn9,60.0,40.0,,,,,,
286,,confirmation,,html-keyboard-response,286,459588,0.0-1.0-55.0-0.0-1.0-0.0,0,0,87963,,,,,,53.0,,,,,1.0,,,,,,,,,,,,,,,,,,292.0,0.949,,,,,,,,,,,,,,,
287,,isi,,html-keyboard-response,287,461592,0.0-1.0-55.0-0.0-2.0,0,0,87963,,,,,,53.0,,,,,1.0,,,,,,,,,,,,,,,,,,294.0,2.0,,,,,,,,,,,,,,,
288,,feedback,,html-keyboard-response,288,462599,0.0-1.0-55.0-0.0-3.0-0.0,0,0,87963,,,,,,53.0,,,,,1.0,,,,,,,,,,,,,,,,,,295.0,1.0,,,,,,,,,,,,,,,
289,,iti,,html-keyboard-response,289,464609,0.0-1.0-55.0-0.0-5.0,0,0,87963,,,,,,53.0,,,,,1.0,,,,,,,,,,,,,,,,,,297.0,2.0,,,,,,,,,,,,,,,
290,,choice,,html-keyboard-response,290,465455,0.0-1.0-56.0-0.0-0.0,0,0,87963,,834.0,,,75.0,54.0,54.0,1000.0,1000.0,0.0,1.0,0.0,60-80,,0.0,stool,bench,60.0,80.0,stool7,bench7,60.0,100.0,ASTOOL25.jpg,ACONBENCH.jpg,/static/Category_learning/Stimuli/Experimental_stims/stool/ASTOOL25.jpg,/static/Category_learning/Stimuli/Experimental_stims/bench/ACONBENCH.jpg,0.0,297.834,0.834,0.0,bench,stool,80.0,60.0,bench7,stool7,100.0,60.0,,,,,,
291,,confirmation,,html-keyboard-response,291,466125,0.0-1.0-56.0-0.0-1.0-0.0,0,0,87963,,,,,,54.0,,,,,1.0,,,,,,,,,,,,,,,,,,298.5,0.666,,,,,,,,,,,,,,,
292,,isi,,html-keyboard-response,292,467132,0.0-1.0-56.0-0.0-2.0,0,0,87963,,,,,,54.0,,,,,1.0,,,,,,,,,,,,,,,,,,299.5,1.0,,,,,,,,,,,,,,,
293,,feedback,,html-keyboard-response,293,468137,0.0-1.0-56.0-0.0-3.0-0.0,0,0,87963,,,,,,54.0,,,,,1.0,,,,,,,,,,,,,,,,,,300.5,1.0,,,,,,,,,,,,,,,
294,,iti,,html-keyboard-response,294,469141,0.0-1.0-56.0-0.0-5.0,0,0,87963,,,,,,54.0,,,,,1.0,,,,,,,,,,,,,,,,,,301.5,1.0,,,,,,,,,,,,,,,
295,,choice,,html-keyboard-response,295,469889,0.0-1.0-57.0-0.0-0.0,0,0,87963,,741.0,,,75.0,55.0,55.0,1000.0,1000.0,0.0,1.0,1.0,80-80,1.0,,bench,bench,80.0,80.0,bench7,bench6,100.0,60.0,ACONBENCH.jpg,26370121.thl.jpg,/static/Category_learning/Stimuli/Experimental_stims/bench/ACONBENCH.jpg,/static/Category_learning/Stimuli/Experimental_stims/bench/26370121.thl.jpg,0.0,302.241,0.741,0.0,bench,bench,80.0,80.0,bench6,bench7,60.0,100.0,,,,,,
296,,confirmation,,html-keyboard-response,296,470654,0.0-1.0-57.0-0.0-1.0-0.0,0,0,87963,,,,,,55.0,,,,,1.0,,,,,,,,,,,,,,,,,,303.0,0.759,,,,,,,,,,,,,,,
297,,isi,,html-keyboard-response,297,471659,0.0-1.0-57.0-0.0-2.0,0,0,87963,,,,,,55.0,,,,,1.0,,,,,,,,,,,,,,,,,,304.0,1.0,,,,,,,,,,,,,,,
298,,feedback,,html-keyboard-response,298,472669,0.0-1.0-57.0-0.0-3.0-0.0,0,0,87963,,,,,,55.0,,,,,1.0,,,,,,,,,,,,,,,,,,305.0,1.0,,,,,,,,,,,,,,,
299,,iti,,html-keyboard-response,299,473674,0.0-1.0-57.0-0.0-5.0,0,0,87963,,,,,,55.0,,,,,1.0,,,,,,,,,,,,,,,,,,306.0,1.0,,,,,,,,,,,,,,,
300,,choice,,html-keyboard-response,300,474371,0.0-1.0-58.0-0.0-0.0,0,0,87963,,691.0,,,75.0,56.0,56.0,3000.0,1000.0,0.0,1.0,0.0,40-60,,1.0,train,poker card,60.0,40.0,train11,poker card6,80.0,40.0,train1.jpg,22864212.thl.jpg,/static/Category_learning/Stimuli/Experimental_stims/train/train1.jpg,/static/Category_learning/Stimuli/Experimental_stims/poker card/22864212.thl.jpg,0.0,306.691,0.691,0.0,poker card,train,40.0,60.0,poker card6,train11,40.0,80.0,,,,,,
301,,confirmation,,html-keyboard-response,301,475190,0.0-1.0-58.0-0.0-1.0-0.0,0,0,87963,,,,,,56.0,,,,,1.0,,,,,,,,,,,,,,,,,,307.5,0.809,,,,,,,,,,,,,,,
302,,isi,,html-keyboard-response,302,478194,0.0-1.0-58.0-0.0-2.0,0,0,87963,,,,,,56.0,,,,,1.0,,,,,,,,,,,,,,,,,,310.5,3.0,,,,,,,,,,,,,,,
303,,feedback,,html-keyboard-response,303,479202,0.0-1.0-58.0-0.0-3.0-0.0,0,0,87963,,,,,,56.0,,,,,1.0,,,,,,,,,,,,,,,,,,311.5,1.0,,,,,,,,,,,,,,,
304,,iti,,html-keyboard-response,304,480205,0.0-1.0-58.0-0.0-5.0,0,0,87963,,,,,,56.0,,,,,1.0,,,,,,,,,,,,,,,,,,312.5,1.0,,,,,,,,,,,,,,,
305,,choice,,html-keyboard-response,305,480717,0.0-1.0-59.0-0.0-0.0,0,0,87963,,505.0,,,68.0,57.0,57.0,1000.0,1500.0,0.0,1.0,0.0,80-80,,,door knob,baby carriage,80.0,80.0,door knob7,baby carriage9,60.0,100.0,doorknob2.jpg,Antique baby Carriage 7.jpg,/static/Category_learning/Stimuli/Experimental_stims/door knob/doorknob2.jpg,/static/Category_learning/Stimuli/Experimental_stims/baby carriage/Antique baby Carriage 7.jpg,0.0,313.005,0.505,1.0,door knob,baby carriage,80.0,80.0,door knob7,baby carriage9,60.0,100.0,,,,,,
306,,confirmation,,html-keyboard-response,306,481720,0.0-1.0-59.0-0.0-1.0-0.0,0,0,87963,,,,,,57.0,,,,,1.0,,,,,,,,,,,,,,,,,,314.0,0.995,,,,,,,,,,,,,,,
307,,isi,,html-keyboard-response,307,482727,0.0-1.0-59.0-0.0-2.0,0,0,87963,,,,,,57.0,,,,,1.0,,,,,,,,,,,,,,,,,,315.0,1.0,,,,,,,,,,,,,,,
308,,feedback,,html-keyboard-response,308,483738,0.0-1.0-59.0-0.0-3.0-0.0,0,0,87963,,,,,,57.0,,,,,1.0,,,,,,,,,,,,,,,,,,316.0,1.0,,,,,,,,,,,,,,,
309,,iti,,html-keyboard-response,309,485247,0.0-1.0-59.0-0.0-5.0,0,0,87963,,,,,,57.0,,,,,1.0,,,,,,,,,,,,,,,,,,317.5,1.5,,,,,,,,,,,,,,,
310,,choice,,html-keyboard-response,310,485370,0.0-1.0-60.0-0.0-0.0,0,0,87963,,111.0,,,75.0,58.0,58.0,1500.0,1000.0,0.0,1.0,1.0,40-40,1.0,,poker card,poker card,40.0,40.0,poker card15,poker card6,40.0,40.0,9816946.thl.jpg,22864212.thl.jpg,/static/Category_learning/Stimuli/Experimental_stims/poker card/9816946.thl.jpg,/static/Category_learning/Stimuli/Experimental_stims/poker card/22864212.thl.jpg,0.0,317.611,0.111,0.0,poker card,poker card,40.0,40.0,poker card6,poker card15,40.0,40.0,,,,,,
311,,confirmation,,html-keyboard-response,311,486770,0.0-1.0-60.0-0.0-1.0-0.0,0,0,87963,,,,,,58.0,,,,,1.0,,,,,,,,,,,,,,,,,,319.0,1.389,,,,,,,,,,,,,,,
312,,isi,,html-keyboard-response,312,488276,0.0-1.0-60.0-0.0-2.0,0,0,87963,,,,,,58.0,,,,,1.0,,,,,,,,,,,,,,,,,,320.5,1.5,,,,,,,,,,,,,,,
313,,feedback,,html-keyboard-response,313,489281,0.0-1.0-60.0-0.0-3.0-0.0,0,0,87963,,,,,,58.0,,,,,1.0,,,,,,,,,,,,,,,,,,321.5,1.0,,,,,,,,,,,,,,,
314,,iti,,html-keyboard-response,314,490286,0.0-1.0-60.0-0.0-5.0,0,0,87963,,,,,,58.0,,,,,1.0,,,,,,,,,,,,,,,,,,322.5,1.0,,,,,,,,,,,,,,,
315,,choice,,html-keyboard-response,315,491088,0.0-1.0-61.0-0.0-0.0,0,0,87963,,794.0,,,75.0,59.0,59.0,3500.0,1000.0,0.0,1.0,0.0,60-80,,0.0,watch,bench,60.0,80.0,watch9,bench10,40.0,100.0,mens-diamond-watches-euro-48733-ab.jpg,APARKBE16.jpg,/static/Category_learning/Stimuli/Experimental_stims/watch/mens-diamond-watches-euro-48733-ab.jpg,/static/Category_learning/Stimuli/Experimental_stims/bench/APARKBE16.jpg,0.0,323.294,0.794,0.0,bench,watch,80.0,60.0,bench10,watch9,100.0,40.0,,,,,,
316,,confirmation,,html-keyboard-response,316,491802,0.0-1.0-61.0-0.0-1.0-0.0,0,0,87963,,,,,,59.0,,,,,1.0,,,,,,,,,,,,,,,,,,324.0,0.706,,,,,,,,,,,,,,,
317,,isi,,html-keyboard-response,317,495309,0.0-1.0-61.0-0.0-2.0,0,0,87963,,,,,,59.0,,,,,1.0,,,,,,,,,,,,,,,,,,327.5,3.5,,,,,,,,,,,,,,,
318,,feedback,,html-keyboard-response,318,496319,0.0-1.0-61.0-0.0-3.0-0.0,0,0,87963,,,,,,59.0,,,,,1.0,,,,,,,,,,,,,,,,,,328.5,1.0,,,,,,,,,,,,,,,
319,,iti,,html-keyboard-response,319,497323,0.0-1.0-61.0-0.0-5.0,0,0,87963,,,,,,59.0,,,,,1.0,,,,,,,,,,,,,,,,,,329.5,1.0,,,,,,,,,,,,,,,
320,,choice,,html-keyboard-response,320,497925,0.0-1.0-62.0-0.0-0.0,0,0,87963,,596.0,,,68.0,60.0,60.0,1500.0,1000.0,0.0,1.0,0.0,40-40,,,pen,necklace,40.0,40.0,pen8,necklace12,60.0,40.0,1383_1749_popup copy.jpg,necklascenew07.jpg,/static/Category_learning/Stimuli/Experimental_stims/pen/1383_1749_popup copy.jpg,/static/Category_learning/Stimuli/Experimental_stims/necklace/necklascenew07.jpg,0.0,330.096,0.596,1.0,pen,necklace,40.0,40.0,pen8,necklace12,60.0,40.0,,,,,,
321,,confirmation,,html-keyboard-response,321,498839,0.0-1.0-62.0-0.0-1.0-0.0,0,0,87963,,,,,,60.0,,,,,1.0,,,,,,,,,,,,,,,,,,331.0,0.904,,,,,,,,,,,,,,,
322,,isi,,html-keyboard-response,322,500343,0.0-1.0-62.0-0.0-2.0,0,0,87963,,,,,,60.0,,,,,1.0,,,,,,,,,,,,,,,,,,332.5,1.5,,,,,,,,,,,,,,,
323,,feedback,,html-keyboard-response,323,501354,0.0-1.0-62.0-0.0-3.0-0.0,0,0,87963,,,,,,60.0,,,,,1.0,,,,,,,,,,,,,,,,,,333.5,1.0,,,,,,,,,,,,,,,
324,,iti,,html-keyboard-response,324,502358,0.0-1.0-62.0-0.0-5.0,0,0,87963,,,,,,60.0,,,,,1.0,,,,,,,,,,,,,,,,,,334.5,1.0,,,,,,,,,,,,,,,
325,,choice,,html-keyboard-response,325,502925,0.0-1.0-63.0-0.0-0.0,0,0,87963,,561.0,,,75.0,61.0,61.0,1000.0,1000.0,0.0,1.0,0.0,20-60,,1.0,train,hammer,60.0,20.0,train15,hammer14,40.0,40.0,master-TD006.jpg,hammer.jpg,/static/Category_learning/Stimuli/Experimental_stims/train/master-TD006.jpg,/static/Category_learning/Stimuli/Experimental_stims/hammer/hammer.jpg,0.0,335.061,0.561,0.0,hammer,train,20.0,60.0,hammer14,train15,40.0,40.0,,,,,,
326,,confirmation,,html-keyboard-response,326,503870,0.0-1.0-63.0-0.0-1.0-0.0,0,0,87963,,,,,,61.0,,,,,1.0,,,,,,,,,,,,,,,,,,336.0,0.939,,,,,,,,,,,,,,,
327,,isi,,html-keyboard-response,327,504875,0.0-1.0-63.0-0.0-2.0,0,0,87963,,,,,,61.0,,,,,1.0,,,,,,,,,,,,,,,,,,337.0,1.0,,,,,,,,,,,,,,,
328,,feedback,,html-keyboard-response,328,505881,0.0-1.0-63.0-0.0-3.0-0.0,0,0,87963,,,,,,61.0,,,,,1.0,,,,,,,,,,,,,,,,,,338.0,1.0,,,,,,,,,,,,,,,
329,,iti,,html-keyboard-response,329,506889,0.0-1.0-63.0-0.0-5.0,0,0,87963,,,,,,61.0,,,,,1.0,,,,,,,,,,,,,,,,,,339.0,1.0,,,,,,,,,,,,,,,
330,,choice,,html-keyboard-response,330,507872,0.0-1.0-64.0-0.0-0.0,0,0,87963,,974.0,,,75.0,62.0,62.0,1000.0,1000.0,0.0,1.0,0.0,20-80,,1.0,dresser,key chain,80.0,20.0,dresser13,key chain7,80.0,40.0,ADRESSE70.jpg,keychain-gentoo-linux.jpg,/static/Category_learning/Stimuli/Experimental_stims/dresser/ADRESSE70.jpg,/static/Category_learning/Stimuli/Experimental_stims/key chain/keychain-gentoo-linux.jpg,0.0,339.974,0.974,0.0,key chain,dresser,20.0,80.0,key chain7,dresser13,40.0,80.0,,,,,,
331,,confirmation,,html-keyboard-response,331,508403,0.0-1.0-64.0-0.0-1.0-0.0,0,0,87963,,,,,,62.0,,,,,1.0,,,,,,,,,,,,,,,,,,340.5,0.526,,,,,,,,,,,,,,,
332,,isi,,html-keyboard-response,332,509406,0.0-1.0-64.0-0.0-2.0,0,0,87963,,,,,,62.0,,,,,1.0,,,,,,,,,,,,,,,,,,341.5,1.0,,,,,,,,,,,,,,,
333,,feedback,,html-keyboard-response,333,510410,0.0-1.0-64.0-0.0-3.0-0.0,0,0,87963,,,,,,62.0,,,,,1.0,,,,,,,,,,,,,,,,,,342.5,1.0,,,,,,,,,,,,,,,
334,,iti,,html-keyboard-response,334,511424,0.0-1.0-64.0-0.0-5.0,0,0,87963,,,,,,62.0,,,,,1.0,,,,,,,,,,,,,,,,,,343.5,1.0,,,,,,,,,,,,,,,
335,,choice,,html-keyboard-response,335,511969,0.0-1.0-65.0-0.0-0.0,0,0,87963,,533.0,,,68.0,63.0,63.0,1500.0,3500.0,0.0,1.0,1.0,20-20,1.0,,key chain,key chain,20.0,20.0,key chain10,key chain7,0.0,40.0,Smurfs_Keychains_Smurf_Row_Boat.jpg,keychain-gentoo-linux.jpg,/static/Category_learning/Stimuli/Experimental_stims/key chain/Smurfs_Keychains_Smurf_Row_Boat.jpg,/static/Category_learning/Stimuli/Experimental_stims/key chain/keychain-gentoo-linux.jpg,0.0,344.033,0.533,1.0,key chain,key chain,20.0,20.0,key chain10,key chain7,0.0,40.0,,,,,,
336,,confirmation,,html-keyboard-response,336,512941,0.0-1.0-65.0-0.0-1.0-0.0,0,0,87963,,,,,,63.0,,,,,1.0,,,,,,,,,,,,,,,,,,345.0,0.967,,,,,,,,,,,,,,,
337,,isi,,html-keyboard-response,337,514444,0.0-1.0-65.0-0.0-2.0,0,0,87963,,,,,,63.0,,,,,1.0,,,,,,,,,,,,,,,,,,346.5,1.5,,,,,,,,,,,,,,,
338,,feedback,,html-keyboard-response,338,515455,0.0-1.0-65.0-0.0-3.0-0.0,0,0,87963,,,,,,63.0,,,,,1.0,,,,,,,,,,,,,,,,,,347.5,1.0,,,,,,,,,,,,,,,
339,,iti,,html-keyboard-response,339,518959,0.0-1.0-65.0-0.0-5.0,0,0,87963,,,,,,63.0,,,,,1.0,,,,,,,,,,,,,,,,,,351.0,3.5,,,,,,,,,,,,,,,
340,,block_over,,html-keyboard-response,340,523339,0.0-1.0-65.0-0.0-7.0-0.0,0,0,87963,,4370.0,,,68.0,63.0,,,,,,,,,,,,,,,,,,,,,,,,,,,,,,,,,,,,,,,
341,,start_run,,html-keyboard-response,341,526774,0.0-1.0-65.0-0.0-7.0-1.0,0,0,87963,,3431.0,,,84.0,,,,,,,,,,,,,,,,,,,,,,,,,,,,,,,,,,,,,,,,
342,,choice,,html-keyboard-response,342,527699,0.0-1.0-66.0-0.0-0.0,0,0,87963,,920.0,,,75.0,64.0,65.0,3500.0,1000.0,0.0,2.0,0.0,20-60,,1.0,telescope,key chain,60.0,20.0,telescope4,key chain14,60.0,0.0,TELESCOPE_BLACK_GOOD_SMALL.jpg,Jif Keychain 285.jpg,/static/Category_learning/Stimuli/Experimental_stims/telescope/TELESCOPE_BLACK_GOOD_SMALL.jpg,/static/Category_learning/Stimuli/Experimental_stims/key chain/Jif Keychain 285.jpg,0.0,0.92,0.92,0.0,key chain,telescope,20.0,60.0,key chain14,telescope4,0.0,60.0,,,,,,
343,,confirmation,,html-keyboard-response,343,528286,0.0-1.0-66.0-0.0-1.0-0.0,0,0,87963,,,,,,64.0,,,,,2.0,,,,,,,,,,,,,,,,,,1.5,0.58,,,,,,,,,,,,,,,
344,,isi,,html-keyboard-response,344,531790,0.0-1.0-66.0-0.0-2.0,0,0,87963,,,,,,64.0,,,,,2.0,,,,,,,,,,,,,,,,,,5.0,3.5,,,,,,,,,,,,,,,
345,,feedback,,html-keyboard-response,345,532794,0.0-1.0-66.0-0.0-3.0-0.0,0,0,87963,,,,,,64.0,,,,,2.0,,,,,,,,,,,,,,,,,,6.0,1.0,,,,,,,,,,,,,,,
346,,iti,,html-keyboard-response,346,533805,0.0-1.0-66.0-0.0-5.0,0,0,87963,,,,,,64.0,,,,,2.0,,,,,,,,,,,,,,,,,,7.0,1.0,,,,,,,,,,,,,,,
347,,choice,,html-keyboard-response,347,534687,0.0-1.0-67.0-0.0-0.0,0,0,87963,,876.0,,,68.0,65.0,66.0,2000.0,1000.0,0.0,2.0,0.0,20-60,,0.0,key chain,yarn,20.0,60.0,key chain3,yarn2,20.0,80.0,Keychain_Voice_Recorder.jpg,Aballofyarn66.jpg,/static/Category_learning/Stimuli/Experimental_stims/key chain/Keychain_Voice_Recorder.jpg,/static/Category_learning/Stimuli/Experimental_stims/yarn/Aballofyarn66.jpg,0.0,7.876,0.876,1.0,key chain,yarn,20.0,60.0,key chain3,yarn2,20.0,80.0,,,,,,
348,,confirmation,,html-keyboard-response,348,535320,0.0-1.0-67.0-0.0-1.0-0.0,0,0,87963,,,,,,65.0,,,,,2.0,,,,,,,,,,,,,,,,,,8.5,0.624,,,,,,,,,,,,,,,
349,,isi,,html-keyboard-response,349,537325,0.0-1.0-67.0-0.0-2.0,0,0,87963,,,,,,65.0,,,,,2.0,,,,,,,,,,,,,,,,,,10.5,2.0,,,,,,,,,,,,,,,
350,,feedback,,html-keyboard-response,350,538333,0.0-1.0-67.0-0.0-3.0-0.0,0,0,87963,,,,,,65.0,,,,,2.0,,,,,,,,,,,,,,,,,,11.5,1.0,,,,,,,,,,,,,,,
351,,iti,,html-keyboard-response,351,539337,0.0-1.0-67.0-0.0-5.0,0,0,87963,,,,,,65.0,,,,,2.0,,,,,,,,,,,,,,,,,,12.5,1.0,,,,,,,,,,,,,,,
352,,choice,,html-keyboard-response,352,539738,0.0-1.0-68.0-0.0-0.0,0,0,87963,,395.0,,,75.0,66.0,67.0,1000.0,1000.0,0.0,2.0,0.0,40-60,,0.0,small table,watch,40.0,60.0,small table15,watch2,60.0,60.0,ATABLE20.jpg,AL0004-03E_MED.jpg,/static/Category_learning/Stimuli/Experimental_stims/small table/ATABLE20.jpg,/static/Category_learning/Stimuli/Experimental_stims/watch/AL0004-03E_MED.jpg,0.0,12.895,0.395,0.0,watch,small table,60.0,40.0,watch2,small table15,60.0,60.0,,,,,,
353,,confirmation,,html-keyboard-response,353,540851,0.0-1.0-68.0-0.0-1.0-0.0,0,0,87963,,,,,,66.0,,,,,2.0,,,,,,,,,,,,,,,,,,14.0,1.105,,,,,,,,,,,,,,,
354,,isi,,html-keyboard-response,354,541854,0.0-1.0-68.0-0.0-2.0,0,0,87963,,,,,,66.0,,,,,2.0,,,,,,,,,,,,,,,,,,15.0,1.0,,,,,,,,,,,,,,,
355,,feedback,,html-keyboard-response,355,542858,0.0-1.0-68.0-0.0-3.0-0.0,0,0,87963,,,,,,66.0,,,,,2.0,,,,,,,,,,,,,,,,,,16.0,1.0,,,,,,,,,,,,,,,
356,,iti,,html-keyboard-response,356,543865,0.0-1.0-68.0-0.0-5.0,0,0,87963,,,,,,66.0,,,,,2.0,,,,,,,,,,,,,,,,,,17.0,1.0,,,,,,,,,,,,,,,
357,,choice,,html-keyboard-response,357,544652,0.0-1.0-69.0-0.0-0.0,0,0,87963,,778.0,,,68.0,67.0,68.0,3500.0,1000.0,0.0,2.0,0.0,40-60,,1.0,yarn,necklace,60.0,40.0,yarn11,necklace7,60.0,60.0,Aballofpinky2.jpg,Anecklace12.jpg,/static/Category_learning/Stimuli/Experimental_stims/yarn/Aballofpinky2.jpg,/static/Category_learning/Stimuli/Experimental_stims/necklace/Anecklace12.jpg,0.0,17.778,0.778,1.0,yarn,necklace,60.0,40.0,yarn11,necklace7,60.0,60.0,,,,,,
358,,confirmation,,html-keyboard-response,358,545383,0.0-1.0-69.0-0.0-1.0-0.0,0,0,87963,,,,,,67.0,,,,,2.0,,,,,,,,,,,,,,,,,,18.5,0.722,,,,,,,,,,,,,,,
359,,isi,,html-keyboard-response,359,548891,0.0-1.0-69.0-0.0-2.0,0,0,87963,,,,,,67.0,,,,,2.0,,,,,,,,,,,,,,,,,,22.0,3.5,,,,,,,,,,,,,,,
360,,feedback,,html-keyboard-response,360,549895,0.0-1.0-69.0-0.0-3.0-0.0,0,0,87963,,,,,,67.0,,,,,2.0,,,,,,,,,,,,,,,,,,23.0,1.0,,,,,,,,,,,,,,,
361,,iti,,html-keyboard-response,361,550902,0.0-1.0-69.0-0.0-5.0,0,0,87963,,,,,,67.0,,,,,2.0,,,,,,,,,,,,,,,,,,24.0,1.0,,,,,,,,,,,,,,,
362,,choice,,html-keyboard-response,362,551374,0.0-1.0-70.0-0.0-0.0,0,0,87963,,464.0,,,75.0,68.0,69.0,1500.0,1000.0,0.0,2.0,0.0,20-80,,1.0,bongo,hat,80.0,20.0,bongo10,hat3,60.0,0.0,22945915.thl.jpg,Astrawhat49.jpg,/static/Category_learning/Stimuli/Experimental_stims/bongo/22945915.thl.jpg,/static/Category_learning/Stimuli/Experimental_stims/hat/Astrawhat49.jpg,0.0,24.464,0.464,0.0,hat,bongo,20.0,80.0,hat3,bongo10,0.0,60.0,,,,,,
363,,confirmation,,html-keyboard-response,363,552419,0.0-1.0-70.0-0.0-1.0-0.0,0,0,87963,,,,,,68.0,,,,,2.0,,,,,,,,,,,,,,,,,,25.5,1.036,,,,,,,,,,,,,,,
364,,isi,,html-keyboard-response,364,553923,0.0-1.0-70.0-0.0-2.0,0,0,87963,,,,,,68.0,,,,,2.0,,,,,,,,,,,,,,,,,,27.0,1.5,,,,,,,,,,,,,,,
365,,feedback,,html-keyboard-response,365,554928,0.0-1.0-70.0-0.0-3.0-0.0,0,0,87963,,,,,,68.0,,,,,2.0,,,,,,,,,,,,,,,,,,28.0,1.0,,,,,,,,,,,,,,,
366,,iti,,html-keyboard-response,366,555941,0.0-1.0-70.0-0.0-5.0,0,0,87963,,,,,,68.0,,,,,2.0,,,,,,,,,,,,,,,,,,29.0,1.0,,,,,,,,,,,,,,,
367,,choice,,html-keyboard-response,367,556574,0.0-1.0-71.0-0.0-0.0,0,0,87963,,624.0,,,75.0,69.0,70.0,1500.0,1500.0,0.0,2.0,1.0,20-20,1.0,,hat,hat,20.0,20.0,hat3,hat7,0.0,20.0,Astrawhat49.jpg,ASTRHATFL.jpg,/static/Category_learning/Stimuli/Experimental_stims/hat/Astrawhat49.jpg,/static/Category_learning/Stimuli/Experimental_stims/hat/ASTRHATFL.jpg,0.0,29.624,0.624,0.0,hat,hat,20.0,20.0,hat7,hat3,20.0,0.0,,,,,,
368,,confirmation,,html-keyboard-response,368,557458,0.0-1.0-71.0-0.0-1.0-0.0,0,0,87963,,,,,,69.0,,,,,2.0,,,,,,,,,,,,,,,,,,30.5,0.876,,,,,,,,,,,,,,,
369,,isi,,html-keyboard-response,369,558961,0.0-1.0-71.0-0.0-2.0,0,0,87963,,,,,,69.0,,,,,2.0,,,,,,,,,,,,,,,,,,32.0,1.5,,,,,,,,,,,,,,,
370,,feedback,,html-keyboard-response,370,559967,0.0-1.0-71.0-0.0-3.0-0.0,0,0,87963,,,,,,69.0,,,,,2.0,,,,,,,,,,,,,,,,,,33.0,1.0,,,,,,,,,,,,,,,
371,,iti,,html-keyboard-response,371,561472,0.0-1.0-71.0-0.0-5.0,0,0,87963,,,,,,69.0,,,,,2.0,,,,,,,,,,,,,,,,,,34.5,1.5,,,,,,,,,,,,,,,
372,,choice,,html-keyboard-response,372,562109,0.0-1.0-72.0-0.0-0.0,0,0,87963,,630.0,,,75.0,70.0,71.0,1500.0,1000.0,0.0,2.0,1.0,20-20,1.0,,key chain,key chain,20.0,20.0,key chain3,key chain14,20.0,0.0,Keychain_Voice_Recorder.jpg,Jif Keychain 285.jpg,/static/Category_learning/Stimuli/Experimental_stims/key chain/Keychain_Voice_Recorder.jpg,/static/Category_learning/Stimuli/Experimental_stims/key chain/Jif Keychain 285.jpg,0.0,35.13,0.63,0.0,key chain,key chain,20.0,20.0,key chain14,key chain3,0.0,20.0,,,,,,
373,,confirmation,,html-keyboard-response,373,562985,0.0-1.0-72.0-0.0-1.0-0.0,0,0,87963,,,,,,70.0,,,,,2.0,,,,,,,,,,,,,,,,,,36.0,0.87,,,,,,,,,,,,,,,
374,,isi,,html-keyboard-response,374,564493,0.0-1.0-72.0-0.0-2.0,0,0,87963,,,,,,70.0,,,,,2.0,,,,,,,,,,,,,,,,,,37.5,1.5,,,,,,,,,,,,,,,
375,,feedback,,html-keyboard-response,375,565501,0.0-1.0-72.0-0.0-3.0-0.0,0,0,87963,,,,,,70.0,,,,,2.0,,,,,,,,,,,,,,,,,,38.5,1.0,,,,,,,,,,,,,,,
376,,iti,,html-keyboard-response,376,566506,0.0-1.0-72.0-0.0-5.0,0,0,87963,,,,,,70.0,,,,,2.0,,,,,,,,,,,,,,,,,,39.5,1.0,,,,,,,,,,,,,,,
377,,choice,,html-keyboard-response,377,567073,0.0-1.0-73.0-0.0-0.0,0,0,87963,,560.0,,,75.0,71.0,72.0,1000.0,2000.0,0.0,2.0,0.0,20-60,,0.0,microscope,telescope,20.0,60.0,microscope12,telescope14,0.0,80.0,usbdigitalmicroscope1_small1.jpg,T09748dt.jpg,/static/Category_learning/Stimuli/Experimental_stims/microscope/usbdigitalmicroscope1_small1.jpg,/static/Category_learning/Stimuli/Experimental_stims/telescope/T09748dt.jpg,0.0,40.06,0.56,0.0,telescope,microscope,60.0,20.0,telescope14,microscope12,80.0,0.0,,,,,,
378,,confirmation,,html-keyboard-response,378,568021,0.0-1.0-73.0-0.0-1.0-0.0,0,0,87963,,,,,,71.0,,,,,2.0,,,,,,,,,,,,,,,,,,41.0,0.94,,,,,,,,,,,,,,,
379,,isi,,html-keyboard-response,379,569026,0.0-1.0-73.0-0.0-2.0,0,0,87963,,,,,,71.0,,,,,2.0,,,,,,,,,,,,,,,,,,42.0,1.0,,,,,,,,,,,,,,,
380,,feedback,,html-keyboard-response,380,570034,0.0-1.0-73.0-0.0-3.0-0.0,0,0,87963,,,,,,71.0,,,,,2.0,,,,,,,,,,,,,,,,,,43.0,1.0,,,,,,,,,,,,,,,
381,,iti,,html-keyboard-response,381,572038,0.0-1.0-73.0-0.0-5.0,0,0,87963,,,,,,71.0,,,,,2.0,,,,,,,,,,,,,,,,,,45.0,2.0,,,,,,,,,,,,,,,
382,,choice,,html-keyboard-response,382,572535,0.0-1.0-74.0-0.0-0.0,0,0,87963,,489.0,,,68.0,72.0,73.0,1000.0,1000.0,0.0,2.0,0.0,20-80,,1.0,bench,hat,80.0,20.0,bench13,hat14,80.0,0.0,ABROWNBE4.jpg,Ahat136.jpg,/static/Category_learning/Stimuli/Experimental_stims/bench/ABROWNBE4.jpg,/static/Category_learning/Stimuli/Experimental_stims/hat/Ahat136.jpg,0.0,45.489,0.489,1.0,bench,hat,80.0,20.0,bench13,hat14,80.0,0.0,,,,,,
383,,confirmation,,html-keyboard-response,383,573561,0.0-1.0-74.0-0.0-1.0-0.0,0,0,87963,,,,,,72.0,,,,,2.0,,,,,,,,,,,,,,,,,,46.5,1.011,,,,,,,,,,,,,,,
384,,isi,,html-keyboard-response,384,574567,0.0-1.0-74.0-0.0-2.0,0,0,87963,,,,,,72.0,,,,,2.0,,,,,,,,,,,,,,,,,,47.5,1.0,,,,,,,,,,,,,,,
385,,feedback,,html-keyboard-response,385,575574,0.0-1.0-74.0-0.0-3.0-0.0,0,0,87963,,,,,,72.0,,,,,2.0,,,,,,,,,,,,,,,,,,48.5,1.0,,,,,,,,,,,,,,,
386,,iti,,html-keyboard-response,386,576579,0.0-1.0-74.0-0.0-5.0,0,0,87963,,,,,,72.0,,,,,2.0,,,,,,,,,,,,,,,,,,49.5,1.0,,,,,,,,,,,,,,,
387,,choice,,html-keyboard-response,387,577523,0.0-1.0-75.0-0.0-0.0,0,0,87963,,934.0,,,75.0,73.0,74.0,1500.0,1000.0,0.0,2.0,1.0,80-80,1.0,,bench,bench,80.0,80.0,bench10,bench13,100.0,80.0,APARKBE16.jpg,ABROWNBE4.jpg,/static/Category_learning/Stimuli/Experimental_stims/bench/APARKBE16.jpg,/static/Category_learning/Stimuli/Experimental_stims/bench/ABROWNBE4.jpg,0.0,50.434,0.934,0.0,bench,bench,80.0,80.0,bench13,bench10,80.0,100.0,,,,,,
388,,confirmation,,html-keyboard-response,388,578094,0.0-1.0-75.0-0.0-1.0-0.0,0,0,87963,,,,,,73.0,,,,,2.0,,,,,,,,,,,,,,,,,,51.0,0.566,,,,,,,,,,,,,,,
389,,isi,,html-keyboard-response,389,579601,0.0-1.0-75.0-0.0-2.0,0,0,87963,,,,,,73.0,,,,,2.0,,,,,,,,,,,,,,,,,,52.5,1.5,,,,,,,,,,,,,,,
390,,feedback,,html-keyboard-response,390,580606,0.0-1.0-75.0-0.0-3.0-0.0,0,0,87963,,,,,,73.0,,,,,2.0,,,,,,,,,,,,,,,,,,53.5,1.0,,,,,,,,,,,,,,,
391,,iti,,html-keyboard-response,391,581610,0.0-1.0-75.0-0.0-5.0,0,0,87963,,,,,,73.0,,,,,2.0,,,,,,,,,,,,,,,,,,54.5,1.0,,,,,,,,,,,,,,,
392,,choice,,html-keyboard-response,392,582180,0.0-1.0-76.0-0.0-0.0,0,0,87963,,563.0,,,75.0,74.0,75.0,1000.0,2000.0,0.0,2.0,0.0,20-20,,,motorcycle,hat,20.0,20.0,motorcycle6,hat13,40.0,0.0,motorcycle45364t4t.jpg,Ahatwithfeath.jpg,/static/Category_learning/Stimuli/Experimental_stims/motorcycle/motorcycle45364t4t.jpg,/static/Category_learning/Stimuli/Experimental_stims/hat/Ahatwithfeath.jpg,0.0,55.063,0.563,0.0,hat,motorcycle,20.0,20.0,hat13,motorcycle6,0.0,40.0,,,,,,
393,,confirmation,,html-keyboard-response,393,583123,0.0-1.0-76.0-0.0-1.0-0.0,0,0,87963,,,,,,74.0,,,,,2.0,,,,,,,,,,,,,,,,,,56.0,0.937,,,,,,,,,,,,,,,
394,,isi,,html-keyboard-response,394,584128,0.0-1.0-76.0-0.0-2.0,0,0,87963,,,,,,74.0,,,,,2.0,,,,,,,,,,,,,,,,,,57.0,1.0,,,,,,,,,,,,,,,
395,,feedback,,html-keyboard-response,395,585138,0.0-1.0-76.0-0.0-3.0-0.0,0,0,87963,,,,,,74.0,,,,,2.0,,,,,,,,,,,,,,,,,,58.0,1.0,,,,,,,,,,,,,,,
396,,iti,,html-keyboard-response,396,587142,0.0-1.0-76.0-0.0-5.0,0,0,87963,,,,,,74.0,,,,,2.0,,,,,,,,,,,,,,,,,,60.0,2.0,,,,,,,,,,,,,,,
397,,choice,,html-keyboard-response,397,587603,0.0-1.0-77.0-0.0-0.0,0,0,87963,,450.0,,,75.0,75.0,76.0,1000.0,1000.0,0.0,2.0,0.0,40-80,,1.0,desk,patio lounge chair,80.0,40.0,desk4,patio lounge chair13,80.0,20.0,AbbeyMiniRadialBIG(1).jpg,grosfillex-bahia-resin-chaise-lounges.jpg,/static/Category_learning/Stimuli/Experimental_stims/desk/AbbeyMiniRadialBIG(1).jpg,/static/Category_learning/Stimuli/Experimental_stims/patio lounge chair/grosfillex-bahia-resin-chaise-lounges.jpg,0.0,60.45,0.45,0.0,patio lounge chair,desk,40.0,80.0,patio lounge chair13,desk4,20.0,80.0,,,,,,
398,,confirmation,,html-keyboard-response,398,588658,0.0-1.0-77.0-0.0-1.0-0.0,0,0,87963,,,,,,75.0,,,,,2.0,,,,,,,,,,,,,,,,,,61.5,1.05,,,,,,,,,,,,,,,
399,,isi,,html-keyboard-response,399,589667,0.0-1.0-77.0-0.0-2.0,0,0,87963,,,,,,75.0,,,,,2.0,,,,,,,,,,,,,,,,,,62.5,1.0,,,,,,,,,,,,,,,
400,,feedback,,html-keyboard-response,400,590672,0.0-1.0-77.0-0.0-3.0-0.0,0,0,87963,,,,,,75.0,,,,,2.0,,,,,,,,,,,,,,,,,,63.5,1.0,,,,,,,,,,,,,,,
401,,iti,,html-keyboard-response,401,591676,0.0-1.0-77.0-0.0-5.0,0,0,87963,,,,,,75.0,,,,,2.0,,,,,,,,,,,,,,,,,,64.5,1.0,,,,,,,,,,,,,,,
402,,choice,,html-keyboard-response,402,592186,0.0-1.0-78.0-0.0-0.0,0,0,87963,,500.0,,,75.0,76.0,77.0,2000.0,1500.0,0.0,2.0,1.0,20-60,0.0,,tape,frame,60.0,20.0,tape2,frame4,40.0,40.0,Tape_Dispenser.jpg,AFRAME125.jpg,/static/Category_learning/Stimuli/Experimental_stims/tape/Tape_Dispenser.jpg,/static/Category_learning/Stimuli/Experimental_stims/frame/AFRAME125.jpg,0.0,65.0,0.5,0.0,frame,tape,20.0,60.0,frame4,tape2,40.0,40.0,,,,,,
403,,confirmation,,html-keyboard-response,403,593191,0.0-1.0-78.0-0.0-1.0-0.0,0,0,87963,,,,,,76.0,,,,,2.0,,,,,,,,,,,,,,,,,,66.0,1.0,,,,,,,,,,,,,,,
404,,isi,,html-keyboard-response,404,595195,0.0-1.0-78.0-0.0-2.0,0,0,87963,,,,,,76.0,,,,,2.0,,,,,,,,,,,,,,,,,,68.0,2.0,,,,,,,,,,,,,,,
405,,feedback,,html-keyboard-response,405,596201,0.0-1.0-78.0-0.0-3.0-0.0,0,0,87963,,,,,,76.0,,,,,2.0,,,,,,,,,,,,,,,,,,69.0,1.0,,,,,,,,,,,,,,,
406,,iti,,html-keyboard-response,406,597705,0.0-1.0-78.0-0.0-5.0,0,0,87963,,,,,,76.0,,,,,2.0,,,,,,,,,,,,,,,,,,70.5,1.5,,,,,,,,,,,,,,,
407,,choice,,html-keyboard-response,407,598274,0.0-1.0-79.0-0.0-0.0,0,0,87963,,562.0,,,75.0,77.0,78.0,2000.0,1000.0,0.0,2.0,0.0,20-40,,1.0,patio lounge chair,hat,40.0,20.0,patio lounge chair7,hat2,40.0,40.0,lg_Serenity_Riviera[1].jpg,Ahatwithfeat7.jpg,/static/Category_learning/Stimuli/Experimental_stims/patio lounge chair/lg_Serenity_Riviera[1].jpg,/static/Category_learning/Stimuli/Experimental_stims/hat/Ahatwithfeat7.jpg,0.0,71.062,0.562,0.0,hat,patio lounge chair,20.0,40.0,hat2,patio lounge chair7,40.0,40.0,,,,,,
408,,confirmation,,html-keyboard-response,408,599220,0.0-1.0-79.0-0.0-1.0-0.0,0,0,87963,,,,,,77.0,,,,,2.0,,,,,,,,,,,,,,,,,,72.0,0.938,,,,,,,,,,,,,,,
409,,isi,,html-keyboard-response,409,601224,0.0-1.0-79.0-0.0-2.0,0,0,87963,,,,,,77.0,,,,,2.0,,,,,,,,,,,,,,,,,,74.0,2.0,,,,,,,,,,,,,,,
410,,feedback,,html-keyboard-response,410,602235,0.0-1.0-79.0-0.0-3.0-0.0,0,0,87963,,,,,,77.0,,,,,2.0,,,,,,,,,,,,,,,,,,75.0,1.0,,,,,,,,,,,,,,,
411,,iti,,html-keyboard-response,411,603243,0.0-1.0-79.0-0.0-5.0,0,0,87963,,,,,,77.0,,,,,2.0,,,,,,,,,,,,,,,,,,76.0,1.0,,,,,,,,,,,,,,,
412,,choice,,html-keyboard-response,412,603651,0.0-1.0-80.0-0.0-0.0,0,0,87963,,393.0,,,75.0,78.0,79.0,1500.0,2000.0,0.0,2.0,1.0,20-20,1.0,,hat,hat,20.0,20.0,hat13,hat2,0.0,40.0,Ahatwithfeath.jpg,Ahatwithfeat7.jpg,/static/Category_learning/Stimuli/Experimental_stims/hat/Ahatwithfeath.jpg,/static/Category_learning/Stimuli/Experimental_stims/hat/Ahatwithfeat7.jpg,0.0,76.393,0.393,0.0,hat,hat,20.0,20.0,hat2,hat13,40.0,0.0,,,,,,
413,,confirmation,,html-keyboard-response,413,604766,0.0-1.0-80.0-0.0-1.0-0.0,0,0,87963,,,,,,78.0,,,,,2.0,,,,,,,,,,,,,,,,,,77.5,1.107,,,,,,,,,,,,,,,
414,,isi,,html-keyboard-response,414,606274,0.0-1.0-80.0-0.0-2.0,0,0,87963,,,,,,78.0,,,,,2.0,,,,,,,,,,,,,,,,,,79.0,1.5,,,,,,,,,,,,,,,
415,,feedback,,html-keyboard-response,415,607282,0.0-1.0-80.0-0.0-3.0-0.0,0,0,87963,,,,,,78.0,,,,,2.0,,,,,,,,,,,,,,,,,,80.0,1.0,,,,,,,,,,,,,,,
416,,iti,,html-keyboard-response,416,609291,0.0-1.0-80.0-0.0-5.0,0,0,87963,,,,,,78.0,,,,,2.0,,,,,,,,,,,,,,,,,,82.0,2.0,,,,,,,,,,,,,,,
417,,choice,,html-keyboard-response,417,609906,0.0-1.0-81.0-0.0-0.0,0,0,87963,,606.0,,,75.0,79.0,80.0,1000.0,1500.0,0.0,2.0,0.0,20-80,,0.0,hat,flashlight,20.0,80.0,hat9,flashlight7,40.0,60.0,Astrawhat44.jpg,11900.jpg,/static/Category_learning/Stimuli/Experimental_stims/hat/Astrawhat44.jpg,/static/Category_learning/Stimuli/Experimental_stims/flashlight/11900.jpg,0.0,82.606,0.606,0.0,flashlight,hat,80.0,20.0,flashlight7,hat9,60.0,40.0,,,,,,
418,,confirmation,,html-keyboard-response,418,610805,0.0-1.0-81.0-0.0-1.0-0.0,0,0,87963,,,,,,79.0,,,,,2.0,,,,,,,,,,,,,,,,,,83.5,0.894,,,,,,,,,,,,,,,
419,,isi,,html-keyboard-response,419,611808,0.0-1.0-81.0-0.0-2.0,0,0,87963,,,,,,79.0,,,,,2.0,,,,,,,,,,,,,,,,,,84.5,1.0,,,,,,,,,,,,,,,
420,,feedback,,html-keyboard-response,420,612813,0.0-1.0-81.0-0.0-3.0-0.0,0,0,87963,,,,,,79.0,,,,,2.0,,,,,,,,,,,,,,,,,,85.5,1.0,,,,,,,,,,,,,,,
421,,iti,,html-keyboard-response,421,614321,0.0-1.0-81.0-0.0-5.0,0,0,87963,,,,,,79.0,,,,,2.0,,,,,,,,,,,,,,,,,,87.0,1.5,,,,,,,,,,,,,,,
422,,choice,,html-keyboard-response,422,615076,0.0-1.0-82.0-0.0-0.0,0,0,87963,,749.0,,,75.0,80.0,81.0,2000.0,1500.0,0.0,2.0,0.0,40-60,,1.0,telescope,sofa,60.0,40.0,telescope2,sofa15,60.0,40.0,Brass-telescope-60700.jpg,APEACHLOV.jpg,/static/Category_learning/Stimuli/Experimental_stims/telescope/Brass-telescope-60700.jpg,/static/Category_learning/Stimuli/Experimental_stims/sofa/APEACHLOV.jpg,0.0,87.749,0.749,0.0,sofa,telescope,40.0,60.0,sofa15,telescope2,40.0,60.0,,,,,,
423,,confirmation,,html-keyboard-response,423,615837,0.0-1.0-82.0-0.0-1.0-0.0,0,0,87963,,,,,,80.0,,,,,2.0,,,,,,,,,,,,,,,,,,88.5,0.751,,,,,,,,,,,,,,,
424,,isi,,html-keyboard-response,424,617842,0.0-1.0-82.0-0.0-2.0,0,0,87963,,,,,,80.0,,,,,2.0,,,,,,,,,,,,,,,,,,90.5,2.0,,,,,,,,,,,,,,,
425,,feedback,,html-keyboard-response,425,618852,0.0-1.0-82.0-0.0-3.0-0.0,0,0,87963,,,,,,80.0,,,,,2.0,,,,,,,,,,,,,,,,,,91.5,1.0,,,,,,,,,,,,,,,
426,,iti,,html-keyboard-response,426,620357,0.0-1.0-82.0-0.0-5.0,0,0,87963,,,,,,80.0,,,,,2.0,,,,,,,,,,,,,,,,,,93.0,1.5,,,,,,,,,,,,,,,
427,,choice,,html-keyboard-response,427,620958,0.0-1.0-83.0-0.0-0.0,0,0,87963,,592.0,,,75.0,81.0,82.0,2000.0,1000.0,0.0,2.0,0.0,20-60,,1.0,train,makeup compact,60.0,20.0,train2,makeup compact15,80.0,40.0,iron_train.jpg,05086681402.jpg,/static/Category_learning/Stimuli/Experimental_stims/train/iron_train.jpg,/static/Category_learning/Stimuli/Experimental_stims/makeup compact/05086681402.jpg,0.0,93.592,0.592,0.0,makeup compact,train,20.0,60.0,makeup compact15,train2,40.0,80.0,,,,,,
428,,confirmation,,html-keyboard-response,428,621874,0.0-1.0-83.0-0.0-1.0-0.0,0,0,87963,,,,,,81.0,,,,,2.0,,,,,,,,,,,,,,,,,,94.5,0.908,,,,,,,,,,,,,,,
429,,isi,,html-keyboard-response,429,623878,0.0-1.0-83.0-0.0-2.0,0,0,87963,,,,,,81.0,,,,,2.0,,,,,,,,,,,,,,,,,,96.5,2.0,,,,,,,,,,,,,,,
430,,feedback,,html-keyboard-response,430,624890,0.0-1.0-83.0-0.0-3.0-0.0,0,0,87963,,,,,,81.0,,,,,2.0,,,,,,,,,,,,,,,,,,97.5,1.0,,,,,,,,,,,,,,,
431,,iti,,html-keyboard-response,431,625901,0.0-1.0-83.0-0.0-5.0,0,0,87963,,,,,,81.0,,,,,2.0,,,,,,,,,,,,,,,,,,98.5,1.0,,,,,,,,,,,,,,,
432,,choice,,html-keyboard-response,432,626487,0.0-1.0-84.0-0.0-0.0,0,0,87963,,578.0,,,75.0,82.0,83.0,3500.0,1000.0,0.0,2.0,0.0,40-40,,,sofa,power strip,40.0,40.0,sofa4,power strip11,20.0,60.0,ALOVSEA15.jpg,41Bw7Tl1G7L._AA262_.jpg,/static/Category_learning/Stimuli/Experimental_stims/sofa/ALOVSEA15.jpg,/static/Category_learning/Stimuli/Experimental_stims/power strip/41Bw7Tl1G7L._AA262_.jpg,0.0,99.078,0.578,0.0,power strip,sofa,40.0,40.0,power strip11,sofa4,60.0,20.0,,,,,,
433,,confirmation,,html-keyboard-response,433,627417,0.0-1.0-84.0-0.0-1.0-0.0,0,0,87963,,,,,,82.0,,,,,2.0,,,,,,,,,,,,,,,,,,100.0,0.922,,,,,,,,,,,,,,,
434,,isi,,html-keyboard-response,434,630940,0.0-1.0-84.0-0.0-2.0,0,0,87963,,,,,,82.0,,,,,2.0,,,,,,,,,,,,,,,,,,103.5,3.5,,,,,,,,,,,,,,,
435,,feedback,,html-keyboard-response,435,631946,0.0-1.0-84.0-0.0-3.0-0.0,0,0,87963,,,,,,82.0,,,,,2.0,,,,,,,,,,,,,,,,,,104.5,1.0,,,,,,,,,,,,,,,
436,,iti,,html-keyboard-response,436,632957,0.0-1.0-84.0-0.0-5.0,0,0,87963,,,,,,82.0,,,,,2.0,,,,,,,,,,,,,,,,,,105.5,1.0,,,,,,,,,,,,,,,
437,,choice,,html-keyboard-response,437,633460,0.0-1.0-85.0-0.0-0.0,0,0,87963,,496.0,,,75.0,83.0,84.0,1500.0,1000.0,0.0,2.0,0.0,20-80,,0.0,hammer,bongo,20.0,80.0,hammer2,bongo3,0.0,100.0,hammer04.jpg,26390697.thl.jpg,/static/Category_learning/Stimuli/Experimental_stims/hammer/hammer04.jpg,/static/Category_learning/Stimuli/Experimental_stims/bongo/26390697.thl.jpg,0.0,105.996,0.496,0.0,bongo,hammer,80.0,20.0,bongo3,hammer2,100.0,0.0,,,,,,
438,,confirmation,,html-keyboard-response,438,634472,0.0-1.0-85.0-0.0-1.0-0.0,0,0,87963,,,,,,83.0,,,,,2.0,,,,,,,,,,,,,,,,,,107.0,1.004,,,,,,,,,,,,,,,
439,,isi,,html-keyboard-response,439,635975,0.0-1.0-85.0-0.0-2.0,0,0,87963,,,,,,83.0,,,,,2.0,,,,,,,,,,,,,,,,,,108.5,1.5,,,,,,,,,,,,,,,
440,,feedback,,html-keyboard-response,440,636986,0.0-1.0-85.0-0.0-3.0-0.0,0,0,87963,,,,,,83.0,,,,,2.0,,,,,,,,,,,,,,,,,,109.5,1.0,,,,,,,,,,,,,,,
441,,iti,,html-keyboard-response,441,637990,0.0-1.0-85.0-0.0-5.0,0,0,87963,,,,,,83.0,,,,,2.0,,,,,,,,,,,,,,,,,,110.5,1.0,,,,,,,,,,,,,,,
442,,choice,,html-keyboard-response,442,638973,0.0-1.0-86.0-0.0-0.0,0,0,87963,,976.0,,,75.0,84.0,85.0,1500.0,1000.0,0.0,2.0,0.0,40-60,,1.0,trumpet,power strip,60.0,40.0,trumpet10,power strip15,60.0,20.0,trumpet2.jpg,31oz6aGZN7L._AA262_.jpg,/static/Category_learning/Stimuli/Experimental_stims/trumpet/trumpet2.jpg,/static/Category_learning/Stimuli/Experimental_stims/power strip/31oz6aGZN7L._AA262_.jpg,0.0,111.476,0.976,0.0,power strip,trumpet,40.0,60.0,power strip15,trumpet10,20.0,60.0,,,,,,
443,,confirmation,,html-keyboard-response,443,639502,0.0-1.0-86.0-0.0-1.0-0.0,0,0,87963,,,,,,84.0,,,,,2.0,,,,,,,,,,,,,,,,,,112.0,0.524,,,,,,,,,,,,,,,
444,,isi,,html-keyboard-response,444,641006,0.0-1.0-86.0-0.0-2.0,0,0,87963,,,,,,84.0,,,,,2.0,,,,,,,,,,,,,,,,,,113.5,1.5,,,,,,,,,,,,,,,
445,,feedback,,html-keyboard-response,445,642011,0.0-1.0-86.0-0.0-3.0-0.0,0,0,87963,,,,,,84.0,,,,,2.0,,,,,,,,,,,,,,,,,,114.5,1.0,,,,,,,,,,,,,,,
446,,iti,,html-keyboard-response,446,643023,0.0-1.0-86.0-0.0-5.0,0,0,87963,,,,,,84.0,,,,,2.0,,,,,,,,,,,,,,,,,,115.5,1.0,,,,,,,,,,,,,,,
447,,choice,,html-keyboard-response,447,643507,0.0-1.0-87.0-0.0-0.0,0,0,87963,,477.0,,,68.0,85.0,86.0,1500.0,2000.0,0.0,2.0,1.0,40-40,1.0,,power strip,power strip,40.0,40.0,power strip11,power strip15,60.0,20.0,41Bw7Tl1G7L._AA262_.jpg,31oz6aGZN7L._AA262_.jpg,/static/Category_learning/Stimuli/Experimental_stims/power strip/41Bw7Tl1G7L._AA262_.jpg,/static/Category_learning/Stimuli/Experimental_stims/power strip/31oz6aGZN7L._AA262_.jpg,0.0,115.977,0.477,1.0,power strip,power strip,40.0,40.0,power strip11,power strip15,60.0,20.0,,,,,,
448,,confirmation,,html-keyboard-response,448,644535,0.0-1.0-87.0-0.0-1.0-0.0,0,0,87963,,,,,,85.0,,,,,2.0,,,,,,,,,,,,,,,,,,117.0,1.023,,,,,,,,,,,,,,,
449,,isi,,html-keyboard-response,449,646040,0.0-1.0-87.0-0.0-2.0,0,0,87963,,,,,,85.0,,,,,2.0,,,,,,,,,,,,,,,,,,118.5,1.5,,,,,,,,,,,,,,,
450,,feedback,,html-keyboard-response,450,647044,0.0-1.0-87.0-0.0-3.0-0.0,0,0,87963,,,,,,85.0,,,,,2.0,,,,,,,,,,,,,,,,,,119.5,1.0,,,,,,,,,,,,,,,
451,,iti,,html-keyboard-response,451,649055,0.0-1.0-87.0-0.0-5.0,0,0,87963,,,,,,85.0,,,,,2.0,,,,,,,,,,,,,,,,,,121.5,2.0,,,,,,,,,,,,,,,
452,,choice,,html-keyboard-response,452,649516,0.0-1.0-88.0-0.0-0.0,0,0,87963,,455.0,,,68.0,86.0,87.0,1500.0,1500.0,0.0,2.0,1.0,20-20,0.0,,hammer,motorcycle,20.0,20.0,hammer14,motorcycle7,40.0,20.0,hammer.jpg,MotoSmall.jpg,/static/Category_learning/Stimuli/Experimental_stims/hammer/hammer.jpg,/static/Category_learning/Stimuli/Experimental_stims/motorcycle/MotoSmall.jpg,0.0,121.955,0.455,1.0,hammer,motorcycle,20.0,20.0,hammer14,motorcycle7,40.0,20.0,,,,,,
453,,confirmation,,html-keyboard-response,453,650567,0.0-1.0-88.0-0.0-1.0-0.0,0,0,87963,,,,,,86.0,,,,,2.0,,,,,,,,,,,,,,,,,,123.0,1.045,,,,,,,,,,,,,,,
454,,isi,,html-keyboard-response,454,652071,0.0-1.0-88.0-0.0-2.0,0,0,87963,,,,,,86.0,,,,,2.0,,,,,,,,,,,,,,,,,,124.5,1.5,,,,,,,,,,,,,,,
455,,feedback,,html-keyboard-response,455,653101,0.0-1.0-88.0-0.0-3.0-0.0,0,0,87963,,,,,,86.0,,,,,2.0,,,,,,,,,,,,,,,,,,125.5,1.0,,,,,,,,,,,,,,,
456,,iti,,html-keyboard-response,456,654605,0.0-1.0-88.0-0.0-5.0,0,0,87963,,,,,,86.0,,,,,2.0,,,,,,,,,,,,,,,,,,127.0,1.5,,,,,,,,,,,,,,,
457,,choice,,html-keyboard-response,457,655286,0.0-1.0-89.0-0.0-0.0,0,0,87963,,673.0,,,75.0,87.0,88.0,1000.0,1500.0,0.0,2.0,0.0,20-20,,,key chain,motorcycle,20.0,20.0,key chain13,motorcycle14,0.0,20.0,Fancy_Liquid_Column_Shape_Key_Ring_with_Floater.jpg,motorcycle11.jpg,/static/Category_learning/Stimuli/Experimental_stims/key chain/Fancy_Liquid_Column_Shape_Key_Ring_with_Floater.jpg,/static/Category_learning/Stimuli/Experimental_stims/motorcycle/motorcycle11.jpg,0.0,127.673,0.673,0.0,motorcycle,key chain,20.0,20.0,motorcycle14,key chain13,20.0,0.0,,,,,,
458,,confirmation,,html-keyboard-response,458,656119,0.0-1.0-89.0-0.0-1.0-0.0,0,0,87963,,,,,,87.0,,,,,2.0,,,,,,,,,,,,,,,,,,128.5,0.827,,,,,,,,,,,,,,,
459,,isi,,html-keyboard-response,459,657124,0.0-1.0-89.0-0.0-2.0,0,0,87963,,,,,,87.0,,,,,2.0,,,,,,,,,,,,,,,,,,129.5,1.0,,,,,,,,,,,,,,,
460,,feedback,,html-keyboard-response,460,658132,0.0-1.0-89.0-0.0-3.0-0.0,0,0,87963,,,,,,87.0,,,,,2.0,,,,,,,,,,,,,,,,,,130.5,1.0,,,,,,,,,,,,,,,
461,,iti,,html-keyboard-response,461,659636,0.0-1.0-89.0-0.0-5.0,0,0,87963,,,,,,87.0,,,,,2.0,,,,,,,,,,,,,,,,,,132.0,1.5,,,,,,,,,,,,,,,
462,,choice,,html-keyboard-response,462,660457,0.0-1.0-90.0-0.0-0.0,0,0,87963,,815.0,,,75.0,88.0,89.0,2000.0,2000.0,0.0,2.0,0.0,40-80,,0.0,small table,fan,40.0,80.0,small table14,fan11,40.0,80.0,Awoodtable13.jpg,n_sf.jpg,/static/Category_learning/Stimuli/Experimental_stims/small table/Awoodtable13.jpg,/static/Category_learning/Stimuli/Experimental_stims/fan/n_sf.jpg,0.0,132.815,0.815,0.0,fan,small table,80.0,40.0,fan11,small table14,80.0,40.0,,,,,,
463,,confirmation,,html-keyboard-response,463,661151,0.0-1.0-90.0-0.0-1.0-0.0,0,0,87963,,,,,,88.0,,,,,2.0,,,,,,,,,,,,,,,,,,133.5,0.685,,,,,,,,,,,,,,,
464,,isi,,html-keyboard-response,464,663156,0.0-1.0-90.0-0.0-2.0,0,0,87963,,,,,,88.0,,,,,2.0,,,,,,,,,,,,,,,,,,135.5,2.0,,,,,,,,,,,,,,,
465,,feedback,,html-keyboard-response,465,664164,0.0-1.0-90.0-0.0-3.0-0.0,0,0,87963,,,,,,88.0,,,,,2.0,,,,,,,,,,,,,,,,,,136.5,1.0,,,,,,,,,,,,,,,
466,,iti,,html-keyboard-response,466,666169,0.0-1.0-90.0-0.0-5.0,0,0,87963,,,,,,88.0,,,,,2.0,,,,,,,,,,,,,,,,,,138.5,2.0,,,,,,,,,,,,,,,
467,,choice,,html-keyboard-response,467,666562,0.0-1.0-91.0-0.0-0.0,0,0,87963,,387.0,,,75.0,89.0,90.0,2000.0,3500.0,0.0,2.0,0.0,40-80,,1.0,baby carriage,patio lounge chair,80.0,40.0,baby carriage1,patio lounge chair6,100.0,40.0,babycarriage16.jpg,Lounge_Chair_with_Pillow.jpg,/static/Category_learning/Stimuli/Experimental_stims/baby carriage/babycarriage16.jpg,/static/Category_learning/Stimuli/Experimental_stims/patio lounge chair/Lounge_Chair_with_Pillow.jpg,0.0,138.887,0.387,0.0,patio lounge chair,baby carriage,40.0,80.0,patio lounge chair6,baby carriage1,40.0,100.0,,,,,,
468,,confirmation,,html-keyboard-response,468,667684,0.0-1.0-91.0-0.0-1.0-0.0,0,0,87963,,,,,,89.0,,,,,2.0,,,,,,,,,,,,,,,,,,140.0,1.113,,,,,,,,,,,,,,,
469,,isi,,html-keyboard-response,469,669692,0.0-1.0-91.0-0.0-2.0,0,0,87963,,,,,,89.0,,,,,2.0,,,,,,,,,,,,,,,,,,142.0,2.0,,,,,,,,,,,,,,,
470,,feedback,,html-keyboard-response,470,670697,0.0-1.0-91.0-0.0-3.0-0.0,0,0,87963,,,,,,89.0,,,,,2.0,,,,,,,,,,,,,,,,,,143.0,1.0,,,,,,,,,,,,,,,
471,,iti,,html-keyboard-response,471,674203,0.0-1.0-91.0-0.0-5.0,0,0,87963,,,,,,89.0,,,,,2.0,,,,,,,,,,,,,,,,,,146.5,3.5,,,,,,,,,,,,,,,
472,,choice,,html-keyboard-response,472,674704,0.0-1.0-92.0-0.0-0.0,0,0,87963,,495.0,,,68.0,90.0,91.0,1000.0,2000.0,0.0,2.0,0.0,40-80,,0.0,patio lounge chair,bowl,40.0,80.0,patio lounge chair10,bowl2,20.0,100.0,51831.jpg,AMIXBOWL2.jpg,/static/Category_learning/Stimuli/Experimental_stims/patio lounge chair/51831.jpg,/static/Category_learning/Stimuli/Experimental_stims/bowl/AMIXBOWL2.jpg,0.0,146.995,0.495,1.0,patio lounge chair,bowl,40.0,80.0,patio lounge chair10,bowl2,20.0,100.0,,,,,,
473,,confirmation,,html-keyboard-response,473,675716,0.0-1.0-92.0-0.0-1.0-0.0,0,0,87963,,,,,,90.0,,,,,2.0,,,,,,,,,,,,,,,,,,148.0,1.005,,,,,,,,,,,,,,,
474,,isi,,html-keyboard-response,474,676722,0.0-1.0-92.0-0.0-2.0,0,0,87963,,,,,,90.0,,,,,2.0,,,,,,,,,,,,,,,,,,149.0,1.0,,,,,,,,,,,,,,,
