,success,ttype,start_time,trial_type,trial_index,time_elapsed,internal_node_id,warning,missed_checkup,PID,view_history,rt,responses,repeat_instructions,key_press,index,trial_num,isi,iti,is_practice,block,old_trial,pair_type,within_category,high_cat_on_left,left_category,right_category,left_category_value,right_category_value,left_exemplar,right_exemplar,left_exemplar_value,right_exemplar_value,left_img,right_img,left_img_path,right_img_path,left_chosen,chosen_category,unchosen_category,chosen_category_value,unchosen_category_value,chosen_exemplar,unchosen_exemplar,chosen_exemplar_value,unchosen_exemplar_value,no_response,onset,duration,end_practice,total_bonus_tally,category,category_group_value,category_value_response,did_not_enter_response
0,True,full_screen,d06072022hr1348,fullscreen,0,10741,0.0-0.0,0,0,64144,,,,,,,,,,,,,,,,,,,,,,,,,,,,,,,,,,,,,,,,,,,,,
1,,category_learning_instructions,,instructions,1,119691,0.0-1.0-0.0-0.0,0,0,64144,"[{""page_index"":0,""viewing_time"":11729},{""page_index"":1,""viewing_time"":31999},{""page_index"":2,""viewing_time"":1293},{""page_index"":3,""viewing_time"":3924},{""page_index"":2,""viewing_time"":29225},{""page_index"":3,""viewing_time"":12761},{""page_index"":4,""viewing_time"":11072},{""page_index"":5,""viewing_time"":4025},{""page_index"":6,""viewing_time"":2913}]",108943.0,,,,,,,,,,,,,,,,,,,,,,,,,,,,,,,,,,,,,,,,,,,
2,,category_learning_comprehension_check,,survey-multi-choice,2,143427,0.0-1.0-0.0-1.0,0,0,64144,,23720.0,"{""Q0"":""True"",""Q1"":""True"",""Q2"":""Stay the same"",""Q3"":""D for left and K for right""}",0.0,,,,,,,,,,,,,,,,,,,,,,,,,,,,,,,,,,,,,,,,,
3,,,,html-keyboard-response,3,164071,0.0-1.0-1.0,0,0,64144,,20631.0,,,68.0,,,,,,,,,,,,,,,,,,,,,,,,,,,,,,,,,,,,,,,,
4,,choice,,html-keyboard-response,4,164770,0.0-1.0-2.0-0.0-0.0,0,0,64144,,685.0,,,68.0,0.0,0.0,1500.0,1000.0,1.0,0.0,0.0,20-80,,0.0,bagel,dumbbell,20.0,80.0,bagel1,dumbbell1,0.0,80.0,bagels_pumpernickel_large.jpg,31B64EN68AL._AA280_.jpg,/static/Category_learning/Stimuli/Practice_stims/bagel/bagels_pumpernickel_large.jpg,/static/Category_learning/Stimuli/Practice_stims/dumbbell/31B64EN68AL._AA280_.jpg,1.0,bagel,dumbbell,20.0,80.0,bagel1,dumbbell1,0.0,80.0,0.0,0.685,0.685,,,,,,
5,,confirmation,,html-keyboard-response,5,165595,0.0-1.0-2.0-0.0-1.0-0.0,0,0,64144,,,,,,0.0,,,,,0.0,,,,,,,,,,,,,,,,,,,,,,,,,,,1.5,0.815,,,,,,
6,,isi,,html-keyboard-response,6,167102,0.0-1.0-2.0-0.0-2.0,0,0,64144,,,,,,0.0,,,,,0.0,,,,,,,,,,,,,,,,,,,,,,,,,,,3.0,1.5,,,,,,
7,,feedback,,html-keyboard-response,7,168109,0.0-1.0-2.0-0.0-3.0-0.0,0,0,64144,,,,,,0.0,,,,,0.0,,,,,,,,,,,,,,,,,,,,,,,,,,,4.0,1.0,,,,,,
8,,iti,,html-keyboard-response,8,169115,0.0-1.0-2.0-0.0-5.0,0,0,64144,,,,,,0.0,,,,,0.0,,,,,,,,,,,,,,,,,,,,,,,,,,,5.0,1.0,,,,,,
9,,choice,,html-keyboard-response,9,169970,0.0-1.0-3.0-0.0-0.0,0,0,64144,,847.0,,,75.0,1.0,1.0,3000.0,1500.0,1.0,0.0,0.0,20-40,,1.0,calculator,bagel,40.0,20.0,calculator2,bagel2,20.0,20.0,22829064.thl.jpg,bagels_cinnraisin_large.jpg,/static/Category_learning/Stimuli/Practice_stims/calculator/22829064.thl.jpg,/static/Category_learning/Stimuli/Practice_stims/bagel/bagels_cinnraisin_large.jpg,0.0,bagel,calculator,20.0,40.0,bagel2,calculator2,20.0,20.0,0.0,5.847,0.847,,,,,,
10,,confirmation,,html-keyboard-response,10,170630,0.0-1.0-3.0-0.0-1.0-0.0,0,0,64144,,,,,,1.0,,,,,0.0,,,,,,,,,,,,,,,,,,,,,,,,,,,6.5,0.653,,,,,,
11,,isi,,html-keyboard-response,11,173636,0.0-1.0-3.0-0.0-2.0,0,0,64144,,,,,,1.0,,,,,0.0,,,,,,,,,,,,,,,,,,,,,,,,,,,9.5,3.0,,,,,,
12,,feedback,,html-keyboard-response,12,174642,0.0-1.0-3.0-0.0-3.0-0.0,0,0,64144,,,,,,1.0,,,,,0.0,,,,,,,,,,,,,,,,,,,,,,,,,,,10.5,1.0,,,,,,
13,,iti,,html-keyboard-response,13,176147,0.0-1.0-3.0-0.0-5.0,0,0,64144,,,,,,1.0,,,,,0.0,,,,,,,,,,,,,,,,,,,,,,,,,,,12.0,1.5,,,,,,
14,,choice,,html-keyboard-response,14,177333,0.0-1.0-4.0-0.0-0.0,0,0,64144,,1180.0,,,75.0,2.0,2.0,2000.0,3000.0,1.0,0.0,0.0,60-80,,0.0,clock,dumbbell,60.0,80.0,clock2,dumbbell2,60.0,100.0,26373355.thl.jpg,31K8MR6TMBL._SS500_.jpg,/static/Category_learning/Stimuli/Practice_stims/clock/26373355.thl.jpg,/static/Category_learning/Stimuli/Practice_stims/dumbbell/31K8MR6TMBL._SS500_.jpg,0.0,dumbbell,clock,80.0,60.0,dumbbell2,clock2,100.0,60.0,0.0,13.18,1.18,,,,,,
15,,confirmation,,html-keyboard-response,15,177658,0.0-1.0-4.0-0.0-1.0-0.0,0,0,64144,,,,,,2.0,,,,,0.0,,,,,,,,,,,,,,,,,,,,,,,,,,,13.5,0.32,,,,,,
16,,isi,,html-keyboard-response,16,179665,0.0-1.0-4.0-0.0-2.0,0,0,64144,,,,,,2.0,,,,,0.0,,,,,,,,,,,,,,,,,,,,,,,,,,,15.5,2.0,,,,,,
17,,feedback,,html-keyboard-response,17,180672,0.0-1.0-4.0-0.0-3.0-0.0,0,0,64144,,,,,,2.0,,,,,0.0,,,,,,,,,,,,,,,,,,,,,,,,,,,16.5,1.0,,,,,,
18,,iti,,html-keyboard-response,18,183678,0.0-1.0-4.0-0.0-5.0,0,0,64144,,,,,,2.0,,,,,0.0,,,,,,,,,,,,,,,,,,,,,,,,,,,19.5,3.0,,,,,,
19,,choice,,html-keyboard-response,19,184915,0.0-1.0-5.0-0.0-0.0,0,0,64144,,1225.0,,,68.0,3.0,3.0,1000.0,2000.0,1.0,0.0,0.0,40-80,,0.0,calculator,clock,40.0,60.0,calculator1,clock1,40.0,40.0,22829184.thl.jpg,Aalarmclock2.jpg,/static/Category_learning/Stimuli/Practice_stims/calculator/22829184.thl.jpg,/static/Category_learning/Stimuli/Practice_stims/clock/Aalarmclock2.jpg,1.0,calculator,clock,40.0,60.0,calculator1,clock1,40.0,40.0,0.0,20.725,1.225,,,,,,
20,,confirmation,,html-keyboard-response,20,185198,0.0-1.0-5.0-0.0-1.0-0.0,0,0,64144,,,,,,3.0,,,,,0.0,,,,,,,,,,,,,,,,,,,,,,,,,,,21.0,0.275,,,,,,
21,,isi,,html-keyboard-response,21,186204,0.0-1.0-5.0-0.0-2.0,0,0,64144,,,,,,3.0,,,,,0.0,,,,,,,,,,,,,,,,,,,,,,,,,,,22.0,1.0,,,,,,
22,,feedback,,html-keyboard-response,22,187210,0.0-1.0-5.0-0.0-3.0-0.0,0,0,64144,,,,,,3.0,,,,,0.0,,,,,,,,,,,,,,,,,,,,,,,,,,,23.0,1.0,,,,,,
23,,iti,,html-keyboard-response,23,189216,0.0-1.0-5.0-0.0-5.0,0,0,64144,,,,,,3.0,,,,,0.0,,,,,,,,,,,,,,,,,,,,,,,,,,,25.0,2.0,,,,,,
24,,choice,,html-keyboard-response,24,190284,0.0-1.0-6.0-0.0-0.0,0,0,64144,,1055.0,,,68.0,4.0,4.0,2500.0,2500.0,1.0,0.0,0.0,20-60,,1.0,dumbbell,bagel,80.0,20.0,dumbbell3,bagel3,100.0,40.0,41K7QVRX50L._SS500_.jpg,photo-169.jpg,/static/Category_learning/Stimuli/Practice_stims/dumbbell/41K7QVRX50L._SS500_.jpg,/static/Category_learning/Stimuli/Practice_stims/bagel/photo-169.jpg,1.0,dumbbell,bagel,80.0,20.0,dumbbell3,bagel3,100.0,40.0,0.0,26.055,1.055,1.0,,,,,
25,,confirmation,,html-keyboard-response,25,190734,0.0-1.0-6.0-0.0-1.0-0.0,0,0,64144,,,,,,4.0,,,,,0.0,,,,,,,,,,,,,,,,,,,,,,,,,,,26.5,0.445,,,,,,
26,,isi,,html-keyboard-response,26,193239,0.0-1.0-6.0-0.0-2.0,0,0,64144,,,,,,4.0,,,,,0.0,,,,,,,,,,,,,,,,,,,,,,,,,,,29.0,2.5,,,,,,
27,,feedback,,html-keyboard-response,27,194245,0.0-1.0-6.0-0.0-3.0-0.0,0,0,64144,,,,,,4.0,,,,,0.0,,,,,,,,,,,,,,,,,,,,,,,,,,,30.0,1.0,,,,,,
28,,iti,,html-keyboard-response,28,196751,0.0-1.0-6.0-0.0-5.0,0,0,64144,,,,,,4.0,,,,,0.0,,,,,,,,,,,,,,,,,,,,,,,,,,,32.5,2.5,,,,,,
29,,practice_over,,html-keyboard-response,29,201009,0.0-1.0-6.0-0.0-6.0-0.0,0,0,64144,,4252.0,,,68.0,4.0,,,,,,,,,,,,,,,,,,,,,,,,,,,,,,,,,,,,,,,
30,,start_run,,html-keyboard-response,30,205393,0.0-1.0-6.0-0.0-6.0-1.0,0,0,64144,,4378.0,,,84.0,,,,,,,,,,,,,,,,,,,,,,,,,,,,,,,,,,,,,,,,
31,,choice,,html-keyboard-response,31,206217,0.0-1.0-7.0-0.0-0.0,0,0,64144,,810.0,,,68.0,5.0,5.0,3000.0,2000.0,0.0,1.0,0.0,40-40,,,license plate,hammer,40.0,40.0,license plate13,hammer11,60.0,60.0,usa-rj-9517.jpg,8oz-hammer-copy.jpg,/static/Category_learning/Stimuli/Experimental_stims/license plate/usa-rj-9517.jpg,/static/Category_learning/Stimuli/Experimental_stims/hammer/8oz-hammer-copy.jpg,1.0,license plate,hammer,40.0,40.0,license plate13,hammer11,60.0,60.0,0.0,0.81,0.81,,,,,,
32,,confirmation,,html-keyboard-response,32,206913,0.0-1.0-7.0-0.0-1.0-0.0,0,0,64144,,,,,,5.0,,,,,1.0,,,,,,,,,,,,,,,,,,,,,,,,,,,1.5,0.69,,,,,,
33,,isi,,html-keyboard-response,33,209918,0.0-1.0-7.0-0.0-2.0,0,0,64144,,,,,,5.0,,,,,1.0,,,,,,,,,,,,,,,,,,,,,,,,,,,4.5,3.0,,,,,,
34,,feedback,,html-keyboard-response,34,210925,0.0-1.0-7.0-0.0-3.0-0.0,0,0,64144,,,,,,5.0,,,,,1.0,,,,,,,,,,,,,,,,,,,,,,,,,,,5.5,1.0,,,,,,
35,,iti,,html-keyboard-response,35,212931,0.0-1.0-7.0-0.0-5.0,0,0,64144,,,,,,5.0,,,,,1.0,,,,,,,,,,,,,,,,,,,,,,,,,,,7.5,2.0,,,,,,
36,,choice,,html-keyboard-response,36,213959,0.0-1.0-8.0-0.0-0.0,0,0,64144,,1013.0,,,68.0,6.0,6.0,1000.0,1000.0,0.0,1.0,0.0,20-60,,0.0,flashlight,poker card,20.0,60.0,flashlight9,poker card6,40.0,80.0,new06.jpg,22864212.thl.jpg,/static/Category_learning/Stimuli/Experimental_stims/flashlight/new06.jpg,/static/Category_learning/Stimuli/Experimental_stims/poker card/22864212.thl.jpg,1.0,flashlight,poker card,20.0,60.0,flashlight9,poker card6,40.0,80.0,0.0,8.513,1.013,,,,,,
37,,confirmation,,html-keyboard-response,37,214455,0.0-1.0-8.0-0.0-1.0-0.0,0,0,64144,,,,,,6.0,,,,,1.0,,,,,,,,,,,,,,,,,,,,,,,,,,,9.0,0.487,,,,,,
38,,isi,,html-keyboard-response,38,215461,0.0-1.0-8.0-0.0-2.0,0,0,64144,,,,,,6.0,,,,,1.0,,,,,,,,,,,,,,,,,,,,,,,,,,,10.0,1.0,,,,,,
39,,feedback,,html-keyboard-response,39,216468,0.0-1.0-8.0-0.0-3.0-0.0,0,0,64144,,,,,,6.0,,,,,1.0,,,,,,,,,,,,,,,,,,,,,,,,,,,11.0,1.0,,,,,,
40,,iti,,html-keyboard-response,40,217474,0.0-1.0-8.0-0.0-5.0,0,0,64144,,,,,,6.0,,,,,1.0,,,,,,,,,,,,,,,,,,,,,,,,,,,12.0,1.0,,,,,,
41,,choice,,html-keyboard-response,41,218632,0.0-1.0-9.0-0.0-0.0,0,0,64144,,1150.0,,,75.0,7.0,7.0,1500.0,3500.0,0.0,1.0,0.0,60-60,,,seashell,nail polish,60.0,60.0,seashell7,nail polish6,60.0,60.0,seashell34.jpg,127_t.jpg,/static/Category_learning/Stimuli/Experimental_stims/seashell/seashell34.jpg,/static/Category_learning/Stimuli/Experimental_stims/nail polish/127_t.jpg,0.0,nail polish,seashell,60.0,60.0,nail polish6,seashell7,60.0,60.0,0.0,13.15,1.15,,,,,,
42,,confirmation,,html-keyboard-response,42,218989,0.0-1.0-9.0-0.0-1.0-0.0,0,0,64144,,,,,,7.0,,,,,1.0,,,,,,,,,,,,,,,,,,,,,,,,,,,13.5,0.35,,,,,,
43,,isi,,html-keyboard-response,43,220495,0.0-1.0-9.0-0.0-2.0,0,0,64144,,,,,,7.0,,,,,1.0,,,,,,,,,,,,,,,,,,,,,,,,,,,15.0,1.5,,,,,,
44,,feedback,,html-keyboard-response,44,221500,0.0-1.0-9.0-0.0-3.0-0.0,0,0,64144,,,,,,7.0,,,,,1.0,,,,,,,,,,,,,,,,,,,,,,,,,,,16.0,1.0,,,,,,
45,,iti,,html-keyboard-response,45,225005,0.0-1.0-9.0-0.0-5.0,0,0,64144,,,,,,7.0,,,,,1.0,,,,,,,,,,,,,,,,,,,,,,,,,,,19.5,3.5,,,,,,
46,,choice,,html-keyboard-response,46,225824,0.0-1.0-10.0-0.0-0.0,0,0,64144,,810.0,,,68.0,8.0,8.0,1500.0,1000.0,0.0,1.0,0.0,40-80,,1.0,telescope,hat,80.0,40.0,telescope3,hat5,100.0,60.0,41V67SB5NJL._SS500_.jpg,AREDHAT4.jpg,/static/Category_learning/Stimuli/Experimental_stims/telescope/41V67SB5NJL._SS500_.jpg,/static/Category_learning/Stimuli/Experimental_stims/hat/AREDHAT4.jpg,1.0,telescope,hat,80.0,40.0,telescope3,hat5,100.0,60.0,0.0,20.31,0.81,,,,,,
47,,confirmation,,html-keyboard-response,47,226519,0.0-1.0-10.0-0.0-1.0-0.0,0,0,64144,,,,,,8.0,,,,,1.0,,,,,,,,,,,,,,,,,,,,,,,,,,,21.0,0.69,,,,,,
48,,isi,,html-keyboard-response,48,228024,0.0-1.0-10.0-0.0-2.0,0,0,64144,,,,,,8.0,,,,,1.0,,,,,,,,,,,,,,,,,,,,,,,,,,,22.5,1.5,,,,,,
49,,feedback,,html-keyboard-response,49,229030,0.0-1.0-10.0-0.0-3.0-0.0,0,0,64144,,,,,,8.0,,,,,1.0,,,,,,,,,,,,,,,,,,,,,,,,,,,23.5,1.0,,,,,,
50,,iti,,html-keyboard-response,50,230035,0.0-1.0-10.0-0.0-5.0,0,0,64144,,,,,,8.0,,,,,1.0,,,,,,,,,,,,,,,,,,,,,,,,,,,24.5,1.0,,,,,,
51,,choice,,html-keyboard-response,51,231121,0.0-1.0-11.0-0.0-0.0,0,0,64144,,1077.0,,,68.0,9.0,9.0,2000.0,3500.0,0.0,1.0,0.0,40-60,,1.0,power strip,makeup compact,60.0,40.0,power strip12,makeup compact1,80.0,60.0,41CXESEH1TL._AA262_.jpg,P190250_hero.jpg,/static/Category_learning/Stimuli/Experimental_stims/power strip/41CXESEH1TL._AA262_.jpg,/static/Category_learning/Stimuli/Experimental_stims/makeup compact/P190250_hero.jpg,1.0,power strip,makeup compact,60.0,40.0,power strip12,makeup compact1,80.0,60.0,0.0,25.577,1.077,,,,,,
52,,confirmation,,html-keyboard-response,52,231552,0.0-1.0-11.0-0.0-1.0-0.0,0,0,64144,,,,,,9.0,,,,,1.0,,,,,,,,,,,,,,,,,,,,,,,,,,,26.0,0.423,,,,,,
53,,isi,,html-keyboard-response,53,233558,0.0-1.0-11.0-0.0-2.0,0,0,64144,,,,,,9.0,,,,,1.0,,,,,,,,,,,,,,,,,,,,,,,,,,,28.0,2.0,,,,,,
54,,feedback,,html-keyboard-response,54,234565,0.0-1.0-11.0-0.0-3.0-0.0,0,0,64144,,,,,,9.0,,,,,1.0,,,,,,,,,,,,,,,,,,,,,,,,,,,29.0,1.0,,,,,,
55,,iti,,html-keyboard-response,55,238071,0.0-1.0-11.0-0.0-5.0,0,0,64144,,,,,,9.0,,,,,1.0,,,,,,,,,,,,,,,,,,,,,,,,,,,32.5,3.5,,,,,,
56,,choice,,html-keyboard-response,56,239149,0.0-1.0-12.0-0.0-0.0,0,0,64144,,1070.0,,,75.0,10.0,10.0,1500.0,3500.0,0.0,1.0,1.0,20-40,0.0,,license plate,flashlight,40.0,20.0,license plate13,flashlight9,60.0,40.0,usa-rj-9517.jpg,new06.jpg,/static/Category_learning/Stimuli/Experimental_stims/license plate/usa-rj-9517.jpg,/static/Category_learning/Stimuli/Experimental_stims/flashlight/new06.jpg,0.0,flashlight,license plate,20.0,40.0,flashlight9,license plate13,40.0,60.0,0.0,33.57,1.07,,,,,,
57,,confirmation,,html-keyboard-response,57,239590,0.0-1.0-12.0-0.0-1.0-0.0,0,0,64144,,,,,,10.0,,,,,1.0,,,,,,,,,,,,,,,,,,,,,,,,,,,34.0,0.43,,,,,,
58,,isi,,html-keyboard-response,58,241097,0.0-1.0-12.0-0.0-2.0,0,0,64144,,,,,,10.0,,,,,1.0,,,,,,,,,,,,,,,,,,,,,,,,,,,35.5,1.5,,,,,,
59,,feedback,,html-keyboard-response,59,242104,0.0-1.0-12.0-0.0-3.0-0.0,0,0,64144,,,,,,10.0,,,,,1.0,,,,,,,,,,,,,,,,,,,,,,,,,,,36.5,1.0,,,,,,
60,,iti,,html-keyboard-response,60,245609,0.0-1.0-12.0-0.0-5.0,0,0,64144,,,,,,10.0,,,,,1.0,,,,,,,,,,,,,,,,,,,,,,,,,,,40.0,3.5,,,,,,
61,,choice,,html-keyboard-response,61,246991,0.0-1.0-13.0-0.0-0.0,0,0,64144,,1369.0,,,75.0,11.0,11.0,1500.0,1000.0,0.0,1.0,1.0,60-80,0.0,,nail polish,telescope,60.0,80.0,nail polish6,telescope3,60.0,100.0,127_t.jpg,41V67SB5NJL._SS500_.jpg,/static/Category_learning/Stimuli/Experimental_stims/nail polish/127_t.jpg,/static/Category_learning/Stimuli/Experimental_stims/telescope/41V67SB5NJL._SS500_.jpg,0.0,telescope,nail polish,80.0,60.0,telescope3,nail polish6,100.0,60.0,0.0,41.369,1.369,,,,,,
62,,confirmation,,html-keyboard-response,62,247129,0.0-1.0-13.0-0.0-1.0-0.0,0,0,64144,,,,,,11.0,,,,,1.0,,,,,,,,,,,,,,,,,,,,,,,,,,,41.5,0.131,,,,,,
63,,isi,,html-keyboard-response,63,248635,0.0-1.0-13.0-0.0-2.0,0,0,64144,,,,,,11.0,,,,,1.0,,,,,,,,,,,,,,,,,,,,,,,,,,,43.0,1.5,,,,,,
64,,feedback,,html-keyboard-response,64,249641,0.0-1.0-13.0-0.0-3.0-0.0,0,0,64144,,,,,,11.0,,,,,1.0,,,,,,,,,,,,,,,,,,,,,,,,,,,44.0,1.0,,,,,,
65,,iti,,html-keyboard-response,65,250648,0.0-1.0-13.0-0.0-5.0,0,0,64144,,,,,,11.0,,,,,1.0,,,,,,,,,,,,,,,,,,,,,,,,,,,45.0,1.0,,,,,,
66,,choice,,html-keyboard-response,66,251992,0.0-1.0-14.0-0.0-0.0,0,0,64144,,1332.0,,,75.0,12.0,12.0,2000.0,1000.0,0.0,1.0,0.0,40-60,,0.0,key chain,sofa,40.0,60.0,key chain13,sofa6,60.0,80.0,Fancy_Liquid_Column_Shape_Key_Ring_with_Floater.jpg,wilkie-sofa-250h-new-cd.jpg,/static/Category_learning/Stimuli/Experimental_stims/key chain/Fancy_Liquid_Column_Shape_Key_Ring_with_Floater.jpg,/static/Category_learning/Stimuli/Experimental_stims/sofa/wilkie-sofa-250h-new-cd.jpg,0.0,sofa,key chain,60.0,40.0,sofa6,key chain13,80.0,60.0,0.0,46.332,1.332,,,,,,
67,,confirmation,,html-keyboard-response,67,252167,0.0-1.0-14.0-0.0-1.0-0.0,0,0,64144,,,,,,12.0,,,,,1.0,,,,,,,,,,,,,,,,,,,,,,,,,,,46.5,0.168,,,,,,
68,,isi,,html-keyboard-response,68,254173,0.0-1.0-14.0-0.0-2.0,0,0,64144,,,,,,12.0,,,,,1.0,,,,,,,,,,,,,,,,,,,,,,,,,,,48.5,2.0,,,,,,
69,,feedback,,html-keyboard-response,69,255179,0.0-1.0-14.0-0.0-3.0-0.0,0,0,64144,,,,,,12.0,,,,,1.0,,,,,,,,,,,,,,,,,,,,,,,,,,,49.5,1.0,,,,,,
70,,iti,,html-keyboard-response,70,256184,0.0-1.0-14.0-0.0-5.0,0,0,64144,,,,,,12.0,,,,,1.0,,,,,,,,,,,,,,,,,,,,,,,,,,,50.5,1.0,,,,,,
71,,choice,,html-keyboard-response,71,257529,0.0-1.0-15.0-0.0-0.0,0,0,64144,,1337.0,,,75.0,13.0,13.0,1000.0,1000.0,0.0,1.0,0.0,40-80,,1.0,stool,motorcycle,80.0,40.0,stool7,motorcycle7,80.0,20.0,ASTOOL25.jpg,MotoSmall.jpg,/static/Category_learning/Stimuli/Experimental_stims/stool/ASTOOL25.jpg,/static/Category_learning/Stimuli/Experimental_stims/motorcycle/MotoSmall.jpg,0.0,motorcycle,stool,40.0,80.0,motorcycle7,stool7,20.0,80.0,0.0,51.837,1.337,,,,,,
72,,confirmation,,html-keyboard-response,72,257700,0.0-1.0-15.0-0.0-1.0-0.0,0,0,64144,,,,,,13.0,,,,,1.0,,,,,,,,,,,,,,,,,,,,,,,,,,,52.0,0.163,,,,,,
73,,isi,,html-keyboard-response,73,258707,0.0-1.0-15.0-0.0-2.0,0,0,64144,,,,,,13.0,,,,,1.0,,,,,,,,,,,,,,,,,,,,,,,,,,,53.0,1.0,,,,,,
74,,feedback,,html-keyboard-response,74,259714,0.0-1.0-15.0-0.0-3.0-0.0,0,0,64144,,,,,,13.0,,,,,1.0,,,,,,,,,,,,,,,,,,,,,,,,,,,54.0,1.0,,,,,,
75,,iti,,html-keyboard-response,75,260720,0.0-1.0-15.0-0.0-5.0,0,0,64144,,,,,,13.0,,,,,1.0,,,,,,,,,,,,,,,,,,,,,,,,,,,55.0,1.0,,,,,,
76,,choice,,html-keyboard-response,76,261826,0.0-1.0-16.0-0.0-0.0,0,0,64144,,1098.0,,,68.0,14.0,14.0,1500.0,1000.0,0.0,1.0,0.0,40-80,,1.0,tent,hat,80.0,40.0,tent1,hat13,100.0,20.0,Atent8.jpg,Ahatwithfeath.jpg,/static/Category_learning/Stimuli/Experimental_stims/tent/Atent8.jpg,/static/Category_learning/Stimuli/Experimental_stims/hat/Ahatwithfeath.jpg,1.0,tent,hat,80.0,40.0,tent1,hat13,100.0,20.0,0.0,56.098,1.098,,,,,,
77,,confirmation,,html-keyboard-response,77,262233,0.0-1.0-16.0-0.0-1.0-0.0,0,0,64144,,,,,,14.0,,,,,1.0,,,,,,,,,,,,,,,,,,,,,,,,,,,56.5,0.402,,,,,,
78,,isi,,html-keyboard-response,78,263739,0.0-1.0-16.0-0.0-2.0,0,0,64144,,,,,,14.0,,,,,1.0,,,,,,,,,,,,,,,,,,,,,,,,,,,58.0,1.5,,,,,,
79,,feedback,,html-keyboard-response,79,264746,0.0-1.0-16.0-0.0-3.0-0.0,0,0,64144,,,,,,14.0,,,,,1.0,,,,,,,,,,,,,,,,,,,,,,,,,,,59.0,1.0,,,,,,
80,,iti,,html-keyboard-response,80,265752,0.0-1.0-16.0-0.0-5.0,0,0,64144,,,,,,14.0,,,,,1.0,,,,,,,,,,,,,,,,,,,,,,,,,,,60.0,1.0,,,,,,
81,,choice,,html-keyboard-response,81,266924,0.0-1.0-17.0-0.0-0.0,0,0,64144,,1159.0,,,75.0,15.0,15.0,2000.0,1000.0,0.0,1.0,0.0,60-80,,0.0,necklace,watch,60.0,80.0,necklace3,watch13,60.0,80.0,26388201.thl.jpg,RS_3104_lrg.jpg,/static/Category_learning/Stimuli/Experimental_stims/necklace/26388201.thl.jpg,/static/Category_learning/Stimuli/Experimental_stims/watch/RS_3104_lrg.jpg,0.0,watch,necklace,80.0,60.0,watch13,necklace3,80.0,60.0,0.0,61.159,1.159,,,,,,
82,,confirmation,,html-keyboard-response,82,267271,0.0-1.0-17.0-0.0-1.0-0.0,0,0,64144,,,,,,15.0,,,,,1.0,,,,,,,,,,,,,,,,,,,,,,,,,,,61.5,0.341,,,,,,
83,,isi,,html-keyboard-response,83,269276,0.0-1.0-17.0-0.0-2.0,0,0,64144,,,,,,15.0,,,,,1.0,,,,,,,,,,,,,,,,,,,,,,,,,,,63.5,2.0,,,,,,
84,,feedback,,html-keyboard-response,84,270282,0.0-1.0-17.0-0.0-3.0-0.0,0,0,64144,,,,,,15.0,,,,,1.0,,,,,,,,,,,,,,,,,,,,,,,,,,,64.5,1.0,,,,,,
85,,iti,,html-keyboard-response,85,271286,0.0-1.0-17.0-0.0-5.0,0,0,64144,,,,,,15.0,,,,,1.0,,,,,,,,,,,,,,,,,,,,,,,,,,,65.5,1.0,,,,,,
86,,choice,,html-keyboard-response,86,272245,0.0-1.0-18.0-0.0-0.0,0,0,64144,,950.0,,,68.0,16.0,16.0,3500.0,1000.0,0.0,1.0,1.0,60-80,0.0,,watch,sofa,80.0,60.0,watch13,sofa6,80.0,80.0,RS_3104_lrg.jpg,wilkie-sofa-250h-new-cd.jpg,/static/Category_learning/Stimuli/Experimental_stims/watch/RS_3104_lrg.jpg,/static/Category_learning/Stimuli/Experimental_stims/sofa/wilkie-sofa-250h-new-cd.jpg,1.0,watch,sofa,80.0,60.0,watch13,sofa6,80.0,80.0,0.0,66.45,0.95,,,,,,
87,,confirmation,,html-keyboard-response,87,272800,0.0-1.0-18.0-0.0-1.0-0.0,0,0,64144,,,,,,16.0,,,,,1.0,,,,,,,,,,,,,,,,,,,,,,,,,,,67.0,0.55,,,,,,
88,,isi,,html-keyboard-response,88,276305,0.0-1.0-18.0-0.0-2.0,0,0,64144,,,,,,16.0,,,,,1.0,,,,,,,,,,,,,,,,,,,,,,,,,,,70.5,3.5,,,,,,
89,,feedback,,html-keyboard-response,89,277313,0.0-1.0-18.0-0.0-3.0-0.0,0,0,64144,,,,,,16.0,,,,,1.0,,,,,,,,,,,,,,,,,,,,,,,,,,,71.5,1.0,,,,,,
90,,iti,,html-keyboard-response,90,278317,0.0-1.0-18.0-0.0-5.0,0,0,64144,,,,,,16.0,,,,,1.0,,,,,,,,,,,,,,,,,,,,,,,,,,,72.5,1.0,,,,,,
91,,choice,,html-keyboard-response,91,279327,0.0-1.0-19.0-0.0-0.0,0,0,64144,,1003.0,,,68.0,17.0,17.0,3500.0,2000.0,0.0,1.0,0.0,20-20,,,flashlight,bowl,20.0,20.0,flashlight5,bowl12,0.0,20.0,Streamlight-71001-Jr-Flashlight-W-batteries-black-B00018A3CG-L.jpg,Abowl52.jpg,/static/Category_learning/Stimuli/Experimental_stims/flashlight/Streamlight-71001-Jr-Flashlight-W-batteries-black-B00018A3CG-L.jpg,/static/Category_learning/Stimuli/Experimental_stims/bowl/Abowl52.jpg,1.0,flashlight,bowl,20.0,20.0,flashlight5,bowl12,0.0,20.0,0.0,73.503,1.003,,,,,,
92,,confirmation,,html-keyboard-response,92,279834,0.0-1.0-19.0-0.0-1.0-0.0,0,0,64144,,,,,,17.0,,,,,1.0,,,,,,,,,,,,,,,,,,,,,,,,,,,74.0,0.497,,,,,,
93,,isi,,html-keyboard-response,93,283340,0.0-1.0-19.0-0.0-2.0,0,0,64144,,,,,,17.0,,,,,1.0,,,,,,,,,,,,,,,,,,,,,,,,,,,77.5,3.5,,,,,,
94,,feedback,,html-keyboard-response,94,284348,0.0-1.0-19.0-0.0-3.0-0.0,0,0,64144,,,,,,17.0,,,,,1.0,,,,,,,,,,,,,,,,,,,,,,,,,,,78.5,1.0,,,,,,
95,,iti,,html-keyboard-response,95,286354,0.0-1.0-19.0-0.0-5.0,0,0,64144,,,,,,17.0,,,,,1.0,,,,,,,,,,,,,,,,,,,,,,,,,,,80.5,2.0,,,,,,
96,,choice,,html-keyboard-response,96,287641,0.0-1.0-20.0-0.0-0.0,0,0,64144,,1278.0,,,75.0,18.0,18.0,1500.0,1500.0,0.0,1.0,1.0,40-80,0.0,,motorcycle,tent,40.0,80.0,motorcycle7,tent1,20.0,100.0,MotoSmall.jpg,Atent8.jpg,/static/Category_learning/Stimuli/Experimental_stims/motorcycle/MotoSmall.jpg,/static/Category_learning/Stimuli/Experimental_stims/tent/Atent8.jpg,0.0,tent,motorcycle,80.0,40.0,tent1,motorcycle7,100.0,20.0,0.0,81.778,1.278,,,,,,
97,,confirmation,,html-keyboard-response,97,287869,0.0-1.0-20.0-0.0-1.0-0.0,0,0,64144,,,,,,18.0,,,,,1.0,,,,,,,,,,,,,,,,,,,,,,,,,,,82.0,0.222,,,,,,
98,,isi,,html-keyboard-response,98,289375,0.0-1.0-20.0-0.0-2.0,0,0,64144,,,,,,18.0,,,,,1.0,,,,,,,,,,,,,,,,,,,,,,,,,,,83.5,1.5,,,,,,
99,,feedback,,html-keyboard-response,99,290382,0.0-1.0-20.0-0.0-3.0-0.0,0,0,64144,,,,,,18.0,,,,,1.0,,,,,,,,,,,,,,,,,,,,,,,,,,,84.5,1.0,,,,,,
100,,iti,,html-keyboard-response,100,291886,0.0-1.0-20.0-0.0-5.0,0,0,64144,,,,,,18.0,,,,,1.0,,,,,,,,,,,,,,,,,,,,,,,,,,,86.0,1.5,,,,,,
101,,choice,,html-keyboard-response,101,292720,0.0-1.0-21.0-0.0-0.0,0,0,64144,,821.0,,,68.0,19.0,19.0,1000.0,2000.0,0.0,1.0,0.0,40-40,,,frame,license plate,40.0,40.0,frame8,license plate14,60.0,40.0,AFRAME154.jpg,fl-hel-bel.jpg,/static/Category_learning/Stimuli/Experimental_stims/frame/AFRAME154.jpg,/static/Category_learning/Stimuli/Experimental_stims/license plate/fl-hel-bel.jpg,1.0,frame,license plate,40.0,40.0,frame8,license plate14,60.0,40.0,0.0,86.821,0.821,,,,,,
102,,confirmation,,html-keyboard-response,102,293406,0.0-1.0-21.0-0.0-1.0-0.0,0,0,64144,,,,,,19.0,,,,,1.0,,,,,,,,,,,,,,,,,,,,,,,,,,,87.5,0.679,,,,,,
103,,isi,,html-keyboard-response,103,294412,0.0-1.0-21.0-0.0-2.0,0,0,64144,,,,,,19.0,,,,,1.0,,,,,,,,,,,,,,,,,,,,,,,,,,,88.5,1.0,,,,,,
104,,feedback,,html-keyboard-response,104,295421,0.0-1.0-21.0-0.0-3.0-0.0,0,0,64144,,,,,,19.0,,,,,1.0,,,,,,,,,,,,,,,,,,,,,,,,,,,89.5,1.0,,,,,,
105,,iti,,html-keyboard-response,105,297427,0.0-1.0-21.0-0.0-5.0,0,0,64144,,,,,,19.0,,,,,1.0,,,,,,,,,,,,,,,,,,,,,,,,,,,91.5,2.0,,,,,,
106,,choice,,html-keyboard-response,106,298473,0.0-1.0-22.0-0.0-0.0,0,0,64144,,1034.0,,,75.0,20.0,20.0,1000.0,1000.0,0.0,1.0,0.0,20-80,,1.0,vase,desk,80.0,20.0,vase3,desk14,80.0,0.0,vase-006af-1.jpg,26419960.thl.jpg,/static/Category_learning/Stimuli/Experimental_stims/vase/vase-006af-1.jpg,/static/Category_learning/Stimuli/Experimental_stims/desk/26419960.thl.jpg,0.0,desk,vase,20.0,80.0,desk14,vase3,0.0,80.0,0.0,92.534,1.034,,,,,,
107,,confirmation,,html-keyboard-response,107,298945,0.0-1.0-22.0-0.0-1.0-0.0,0,0,64144,,,,,,20.0,,,,,1.0,,,,,,,,,,,,,,,,,,,,,,,,,,,93.0,0.466,,,,,,
108,,isi,,html-keyboard-response,108,299951,0.0-1.0-22.0-0.0-2.0,0,0,64144,,,,,,20.0,,,,,1.0,,,,,,,,,,,,,,,,,,,,,,,,,,,94.0,1.0,,,,,,
109,,feedback,,html-keyboard-response,109,300958,0.0-1.0-22.0-0.0-3.0-0.0,0,0,64144,,,,,,20.0,,,,,1.0,,,,,,,,,,,,,,,,,,,,,,,,,,,95.0,1.0,,,,,,
110,,iti,,html-keyboard-response,110,301964,0.0-1.0-22.0-0.0-5.0,0,0,64144,,,,,,20.0,,,,,1.0,,,,,,,,,,,,,,,,,,,,,,,,,,,96.0,1.0,,,,,,
111,,choice,,html-keyboard-response,111,303028,0.0-1.0-23.0-0.0-0.0,0,0,64144,,1058.0,,,75.0,21.0,21.0,1500.0,2000.0,0.0,1.0,0.0,40-60,,1.0,power strip,frame,60.0,40.0,power strip5,frame1,40.0,20.0,93e4a283-bcd6-4ad1-8add-339658cda0fc_400.jpg,AFRAME127.jpg,/static/Category_learning/Stimuli/Experimental_stims/power strip/93e4a283-bcd6-4ad1-8add-339658cda0fc_400.jpg,/static/Category_learning/Stimuli/Experimental_stims/frame/AFRAME127.jpg,0.0,frame,power strip,40.0,60.0,frame1,power strip5,20.0,40.0,0.0,97.058,1.058,,,,,,
112,,confirmation,,html-keyboard-response,112,303479,0.0-1.0-23.0-0.0-1.0-0.0,0,0,64144,,,,,,21.0,,,,,1.0,,,,,,,,,,,,,,,,,,,,,,,,,,,97.5,0.442,,,,,,
113,,isi,,html-keyboard-response,113,304984,0.0-1.0-23.0-0.0-2.0,0,0,64144,,,,,,21.0,,,,,1.0,,,,,,,,,,,,,,,,,,,,,,,,,,,99.0,1.5,,,,,,
114,,feedback,,html-keyboard-response,114,305990,0.0-1.0-23.0-0.0-3.0-0.0,0,0,64144,,,,,,21.0,,,,,1.0,,,,,,,,,,,,,,,,,,,,,,,,,,,100.0,1.0,,,,,,
115,,iti,,html-keyboard-response,115,307995,0.0-1.0-23.0-0.0-5.0,0,0,64144,,,,,,21.0,,,,,1.0,,,,,,,,,,,,,,,,,,,,,,,,,,,102.0,2.0,,,,,,
116,,choice,,html-keyboard-response,116,309152,0.0-1.0-24.0-0.0-0.0,0,0,64144,,1144.0,,,68.0,22.0,22.0,2000.0,1000.0,0.0,1.0,1.0,40-40,1.0,,frame,frame,40.0,40.0,frame8,frame1,60.0,20.0,AFRAME154.jpg,AFRAME127.jpg,/static/Category_learning/Stimuli/Experimental_stims/frame/AFRAME154.jpg,/static/Category_learning/Stimuli/Experimental_stims/frame/AFRAME127.jpg,1.0,frame,frame,40.0,40.0,frame8,frame1,60.0,20.0,0.0,103.144,1.144,,,,,,
117,,confirmation,,html-keyboard-response,117,309514,0.0-1.0-24.0-0.0-1.0-0.0,0,0,64144,,,,,,22.0,,,,,1.0,,,,,,,,,,,,,,,,,,,,,,,,,,,103.5,0.356,,,,,,
118,,isi,,html-keyboard-response,118,311521,0.0-1.0-24.0-0.0-2.0,0,0,64144,,,,,,22.0,,,,,1.0,,,,,,,,,,,,,,,,,,,,,,,,,,,105.5,2.0,,,,,,
119,,feedback,,html-keyboard-response,119,312529,0.0-1.0-24.0-0.0-3.0-0.0,0,0,64144,,,,,,22.0,,,,,1.0,,,,,,,,,,,,,,,,,,,,,,,,,,,106.5,1.0,,,,,,
120,,iti,,html-keyboard-response,120,313535,0.0-1.0-24.0-0.0-5.0,0,0,64144,,,,,,22.0,,,,,1.0,,,,,,,,,,,,,,,,,,,,,,,,,,,107.5,1.0,,,,,,
121,,choice,,html-keyboard-response,121,314477,0.0-1.0-25.0-0.0-0.0,0,0,64144,,930.0,,,68.0,23.0,23.0,1000.0,1000.0,0.0,1.0,0.0,40-60,,0.0,lipstick,small table,40.0,60.0,lipstick7,small table5,60.0,80.0,P101401_hero.jpg,Atable145.jpg,/static/Category_learning/Stimuli/Experimental_stims/lipstick/P101401_hero.jpg,/static/Category_learning/Stimuli/Experimental_stims/small table/Atable145.jpg,1.0,lipstick,small table,40.0,60.0,lipstick7,small table5,60.0,80.0,0.0,108.43,0.93,,,,,,
122,,confirmation,,html-keyboard-response,122,315052,0.0-1.0-25.0-0.0-1.0-0.0,0,0,64144,,,,,,23.0,,,,,1.0,,,,,,,,,,,,,,,,,,,,,,,,,,,109.0,0.57,,,,,,
123,,isi,,html-keyboard-response,123,316060,0.0-1.0-25.0-0.0-2.0,0,0,64144,,,,,,23.0,,,,,1.0,,,,,,,,,,,,,,,,,,,,,,,,,,,110.0,1.0,,,,,,
124,,feedback,,html-keyboard-response,124,317066,0.0-1.0-25.0-0.0-3.0-0.0,0,0,64144,,,,,,23.0,,,,,1.0,,,,,,,,,,,,,,,,,,,,,,,,,,,111.0,1.0,,,,,,
125,,iti,,html-keyboard-response,125,318072,0.0-1.0-25.0-0.0-5.0,0,0,64144,,,,,,23.0,,,,,1.0,,,,,,,,,,,,,,,,,,,,,,,,,,,112.0,1.0,,,,,,
126,,choice,,html-keyboard-response,126,319013,0.0-1.0-26.0-0.0-0.0,0,0,64144,,933.0,,,75.0,24.0,24.0,3000.0,1500.0,0.0,1.0,0.0,20-80,,1.0,yarn,bowl,80.0,20.0,yarn4,bowl6,60.0,20.0,amethyst dreaming boho hy sml.jpg,Abowl59.jpg,/static/Category_learning/Stimuli/Experimental_stims/yarn/amethyst dreaming boho hy sml.jpg,/static/Category_learning/Stimuli/Experimental_stims/bowl/Abowl59.jpg,0.0,bowl,yarn,20.0,80.0,bowl6,yarn4,20.0,60.0,0.0,112.933,0.933,,,,,,
127,,confirmation,,html-keyboard-response,127,319586,0.0-1.0-26.0-0.0-1.0-0.0,0,0,64144,,,,,,24.0,,,,,1.0,,,,,,,,,,,,,,,,,,,,,,,,,,,113.5,0.567,,,,,,
128,,isi,,html-keyboard-response,128,322591,0.0-1.0-26.0-0.0-2.0,0,0,64144,,,,,,24.0,,,,,1.0,,,,,,,,,,,,,,,,,,,,,,,,,,,116.5,3.0,,,,,,
129,,feedback,,html-keyboard-response,129,323597,0.0-1.0-26.0-0.0-3.0-0.0,0,0,64144,,,,,,24.0,,,,,1.0,,,,,,,,,,,,,,,,,,,,,,,,,,,117.5,1.0,,,,,,
130,,iti,,html-keyboard-response,130,325103,0.0-1.0-26.0-0.0-5.0,0,0,64144,,,,,,24.0,,,,,1.0,,,,,,,,,,,,,,,,,,,,,,,,,,,119.0,1.5,,,,,,
131,,choice,,html-keyboard-response,131,325976,0.0-1.0-27.0-0.0-0.0,0,0,64144,,865.0,,,68.0,25.0,25.0,1000.0,2000.0,0.0,1.0,0.0,80-80,,,watch,trumpet,80.0,80.0,watch10,trumpet9,100.0,80.0,HEU0102124_zoom.jpg,trumpet3.jpg,/static/Category_learning/Stimuli/Experimental_stims/watch/HEU0102124_zoom.jpg,/static/Category_learning/Stimuli/Experimental_stims/trumpet/trumpet3.jpg,1.0,watch,trumpet,80.0,80.0,watch10,trumpet9,100.0,80.0,0.0,119.865,0.865,,,,,,
132,,confirmation,,html-keyboard-response,132,326619,0.0-1.0-27.0-0.0-1.0-0.0,0,0,64144,,,,,,25.0,,,,,1.0,,,,,,,,,,,,,,,,,,,,,,,,,,,120.5,0.635,,,,,,
133,,isi,,html-keyboard-response,133,327625,0.0-1.0-27.0-0.0-2.0,0,0,64144,,,,,,25.0,,,,,1.0,,,,,,,,,,,,,,,,,,,,,,,,,,,121.5,1.0,,,,,,
134,,feedback,,html-keyboard-response,134,328632,0.0-1.0-27.0-0.0-3.0-0.0,0,0,64144,,,,,,25.0,,,,,1.0,,,,,,,,,,,,,,,,,,,,,,,,,,,122.5,1.0,,,,,,
135,,iti,,html-keyboard-response,135,330638,0.0-1.0-27.0-0.0-5.0,0,0,64144,,,,,,25.0,,,,,1.0,,,,,,,,,,,,,,,,,,,,,,,,,,,124.5,2.0,,,,,,
136,,choice,,html-keyboard-response,136,331498,0.0-1.0-28.0-0.0-0.0,0,0,64144,,848.0,,,68.0,26.0,26.0,2000.0,1000.0,0.0,1.0,1.0,20-60,0.0,,power strip,desk,60.0,20.0,power strip12,desk14,80.0,0.0,41CXESEH1TL._AA262_.jpg,26419960.thl.jpg,/static/Category_learning/Stimuli/Experimental_stims/power strip/41CXESEH1TL._AA262_.jpg,/static/Category_learning/Stimuli/Experimental_stims/desk/26419960.thl.jpg,1.0,power strip,desk,60.0,20.0,power strip12,desk14,80.0,0.0,0.0,125.348,0.848,,,,,,
137,,confirmation,,html-keyboard-response,137,332158,0.0-1.0-28.0-0.0-1.0-0.0,0,0,64144,,,,,,26.0,,,,,1.0,,,,,,,,,,,,,,,,,,,,,,,,,,,126.0,0.652,,,,,,
138,,isi,,html-keyboard-response,138,334163,0.0-1.0-28.0-0.0-2.0,0,0,64144,,,,,,26.0,,,,,1.0,,,,,,,,,,,,,,,,,,,,,,,,,,,128.0,2.0,,,,,,
139,,feedback,,html-keyboard-response,139,335169,0.0-1.0-28.0-0.0-3.0-0.0,0,0,64144,,,,,,26.0,,,,,1.0,,,,,,,,,,,,,,,,,,,,,,,,,,,129.0,1.0,,,,,,
140,,iti,,html-keyboard-response,140,336175,0.0-1.0-28.0-0.0-5.0,0,0,64144,,,,,,26.0,,,,,1.0,,,,,,,,,,,,,,,,,,,,,,,,,,,130.0,1.0,,,,,,
141,,choice,,html-keyboard-response,141,337397,0.0-1.0-29.0-0.0-0.0,0,0,64144,,1214.0,,,68.0,27.0,27.0,3000.0,1500.0,0.0,1.0,0.0,80-80,,,stool,yarn,80.0,80.0,stool12,yarn7,80.0,100.0,henrybar_stool1.jpg,herb garden hy smaller.jpg,/static/Category_learning/Stimuli/Experimental_stims/stool/henrybar_stool1.jpg,/static/Category_learning/Stimuli/Experimental_stims/yarn/herb garden hy smaller.jpg,1.0,stool,yarn,80.0,80.0,stool12,yarn7,80.0,100.0,0.0,131.214,1.214,,,,,,
142,,confirmation,,html-keyboard-response,142,337689,0.0-1.0-29.0-0.0-1.0-0.0,0,0,64144,,,,,,27.0,,,,,1.0,,,,,,,,,,,,,,,,,,,,,,,,,,,131.5,0.286,,,,,,
143,,isi,,html-keyboard-response,143,340695,0.0-1.0-29.0-0.0-2.0,0,0,64144,,,,,,27.0,,,,,1.0,,,,,,,,,,,,,,,,,,,,,,,,,,,134.5,3.0,,,,,,
144,,feedback,,html-keyboard-response,144,341703,0.0-1.0-29.0-0.0-3.0-0.0,0,0,64144,,,,,,27.0,,,,,1.0,,,,,,,,,,,,,,,,,,,,,,,,,,,135.5,1.0,,,,,,
145,,iti,,html-keyboard-response,145,343209,0.0-1.0-29.0-0.0-5.0,0,0,64144,,,,,,27.0,,,,,1.0,,,,,,,,,,,,,,,,,,,,,,,,,,,137.0,1.5,,,,,,
146,,choice,,html-keyboard-response,146,343979,0.0-1.0-30.0-0.0-0.0,0,0,64144,,763.0,,,75.0,28.0,28.0,2000.0,1500.0,0.0,1.0,0.0,40-60,,1.0,patio lounge chair,makeup compact,60.0,40.0,patio lounge chair6,makeup compact5,60.0,60.0,Lounge_Chair_with_Pillow.jpg,P109965_hero.jpg,/static/Category_learning/Stimuli/Experimental_stims/patio lounge chair/Lounge_Chair_with_Pillow.jpg,/static/Category_learning/Stimuli/Experimental_stims/makeup compact/P109965_hero.jpg,0.0,makeup compact,patio lounge chair,40.0,60.0,makeup compact5,patio lounge chair6,60.0,60.0,0.0,137.763,0.763,,,,,,
147,,confirmation,,html-keyboard-response,147,344721,0.0-1.0-30.0-0.0-1.0-0.0,0,0,64144,,,,,,28.0,,,,,1.0,,,,,,,,,,,,,,,,,,,,,,,,,,,138.5,0.737,,,,,,
148,,isi,,html-keyboard-response,148,346728,0.0-1.0-30.0-0.0-2.0,0,0,64144,,,,,,28.0,,,,,1.0,,,,,,,,,,,,,,,,,,,,,,,,,,,140.5,2.0,,,,,,
149,,feedback,,html-keyboard-response,149,347734,0.0-1.0-30.0-0.0-3.0-0.0,0,0,64144,,,,,,28.0,,,,,1.0,,,,,,,,,,,,,,,,,,,,,,,,,,,141.5,1.0,,,,,,
150,,iti,,html-keyboard-response,150,349240,0.0-1.0-30.0-0.0-5.0,0,0,64144,,,,,,28.0,,,,,1.0,,,,,,,,,,,,,,,,,,,,,,,,,,,143.0,1.5,,,,,,
151,,choice,,html-keyboard-response,151,350050,0.0-1.0-31.0-0.0-0.0,0,0,64144,,803.0,,,68.0,29.0,29.0,1000.0,3500.0,0.0,1.0,0.0,40-80,,0.0,license plate,tape,40.0,80.0,license plate12,tape7,20.0,80.0,TurtleLicensePlate.jpg,tape dispenser.jpg,/static/Category_learning/Stimuli/Experimental_stims/license plate/TurtleLicensePlate.jpg,/static/Category_learning/Stimuli/Experimental_stims/tape/tape dispenser.jpg,1.0,license plate,tape,40.0,80.0,license plate12,tape7,20.0,80.0,0.0,143.803,0.803,,,,,,
152,,confirmation,,html-keyboard-response,152,350753,0.0-1.0-31.0-0.0-1.0-0.0,0,0,64144,,,,,,29.0,,,,,1.0,,,,,,,,,,,,,,,,,,,,,,,,,,,144.5,0.697,,,,,,
153,,isi,,html-keyboard-response,153,351759,0.0-1.0-31.0-0.0-2.0,0,0,64144,,,,,,29.0,,,,,1.0,,,,,,,,,,,,,,,,,,,,,,,,,,,145.5,1.0,,,,,,
154,,feedback,,html-keyboard-response,154,352766,0.0-1.0-31.0-0.0-3.0-0.0,0,0,64144,,,,,,29.0,,,,,1.0,,,,,,,,,,,,,,,,,,,,,,,,,,,146.5,1.0,,,,,,
155,,iti,,html-keyboard-response,155,356272,0.0-1.0-31.0-0.0-5.0,0,0,64144,,,,,,29.0,,,,,1.0,,,,,,,,,,,,,,,,,,,,,,,,,,,150.0,3.5,,,,,,
156,,choice,,html-keyboard-response,156,357037,0.0-1.0-32.0-0.0-0.0,0,0,64144,,758.0,,,75.0,30.0,30.0,1000.0,1000.0,0.0,1.0,0.0,20-80,,0.0,desk,yarn,20.0,80.0,desk10,yarn3,20.0,100.0,MEX028.jpg,Aballofblueya.jpg,/static/Category_learning/Stimuli/Experimental_stims/desk/MEX028.jpg,/static/Category_learning/Stimuli/Experimental_stims/yarn/Aballofblueya.jpg,0.0,yarn,desk,80.0,20.0,yarn3,desk10,100.0,20.0,0.0,150.758,0.758,,,,,,
157,,confirmation,,html-keyboard-response,157,357785,0.0-1.0-32.0-0.0-1.0-0.0,0,0,64144,,,,,,30.0,,,,,1.0,,,,,,,,,,,,,,,,,,,,,,,,,,,151.5,0.742,,,,,,
158,,isi,,html-keyboard-response,158,358791,0.0-1.0-32.0-0.0-2.0,0,0,64144,,,,,,30.0,,,,,1.0,,,,,,,,,,,,,,,,,,,,,,,,,,,152.5,1.0,,,,,,
159,,feedback,,html-keyboard-response,159,359796,0.0-1.0-32.0-0.0-3.0-0.0,0,0,64144,,,,,,30.0,,,,,1.0,,,,,,,,,,,,,,,,,,,,,,,,,,,153.5,1.0,,,,,,
160,,iti,,html-keyboard-response,160,360802,0.0-1.0-32.0-0.0-5.0,0,0,64144,,,,,,30.0,,,,,1.0,,,,,,,,,,,,,,,,,,,,,,,,,,,154.5,1.0,,,,,,
161,,choice,,html-keyboard-response,161,361926,0.0-1.0-33.0-0.0-0.0,0,0,64144,,1116.0,,,68.0,31.0,31.0,1500.0,3000.0,0.0,1.0,0.0,20-60,,0.0,fan,poker card,20.0,60.0,fan14,poker card15,40.0,40.0,124771_sk_lg.jpg,9816946.thl.jpg,/static/Category_learning/Stimuli/Experimental_stims/fan/124771_sk_lg.jpg,/static/Category_learning/Stimuli/Experimental_stims/poker card/9816946.thl.jpg,1.0,fan,poker card,20.0,60.0,fan14,poker card15,40.0,40.0,0.0,155.616,1.116,,,,,,
162,,confirmation,,html-keyboard-response,162,362316,0.0-1.0-33.0-0.0-1.0-0.0,0,0,64144,,,,,,31.0,,,,,1.0,,,,,,,,,,,,,,,,,,,,,,,,,,,156.0,0.384,,,,,,
163,,isi,,html-keyboard-response,163,363822,0.0-1.0-33.0-0.0-2.0,0,0,64144,,,,,,31.0,,,,,1.0,,,,,,,,,,,,,,,,,,,,,,,,,,,157.5,1.5,,,,,,
164,,feedback,,html-keyboard-response,164,364827,0.0-1.0-33.0-0.0-3.0-0.0,0,0,64144,,,,,,31.0,,,,,1.0,,,,,,,,,,,,,,,,,,,,,,,,,,,158.5,1.0,,,,,,
165,,iti,,html-keyboard-response,165,367833,0.0-1.0-33.0-0.0-5.0,0,0,64144,,,,,,31.0,,,,,1.0,,,,,,,,,,,,,,,,,,,,,,,,,,,161.5,3.0,,,,,,
166,,choice,,html-keyboard-response,166,368749,0.0-1.0-34.0-0.0-0.0,0,0,64144,,908.0,,,68.0,32.0,32.0,2000.0,2000.0,0.0,1.0,0.0,60-80,,0.0,nail polish,tape,60.0,80.0,nail polish11,tape10,80.0,60.0,Revlon_Super_Top_Speed_Chrome_Nail_Polish-resized200.jpg,26377601.thl.jpg,/static/Category_learning/Stimuli/Experimental_stims/nail polish/Revlon_Super_Top_Speed_Chrome_Nail_Polish-resized200.jpg,/static/Category_learning/Stimuli/Experimental_stims/tape/26377601.thl.jpg,1.0,nail polish,tape,60.0,80.0,nail polish11,tape10,80.0,60.0,0.0,162.408,0.908,,,,,,
167,,confirmation,,html-keyboard-response,167,369347,0.0-1.0-34.0-0.0-1.0-0.0,0,0,64144,,,,,,32.0,,,,,1.0,,,,,,,,,,,,,,,,,,,,,,,,,,,163.0,0.592,,,,,,
168,,isi,,html-keyboard-response,168,371353,0.0-1.0-34.0-0.0-2.0,0,0,64144,,,,,,32.0,,,,,1.0,,,,,,,,,,,,,,,,,,,,,,,,,,,165.0,2.0,,,,,,
169,,feedback,,html-keyboard-response,169,372359,0.0-1.0-34.0-0.0-3.0-0.0,0,0,64144,,,,,,32.0,,,,,1.0,,,,,,,,,,,,,,,,,,,,,,,,,,,166.0,1.0,,,,,,
170,,iti,,html-keyboard-response,170,374364,0.0-1.0-34.0-0.0-5.0,0,0,64144,,,,,,32.0,,,,,1.0,,,,,,,,,,,,,,,,,,,,,,,,,,,168.0,2.0,,,,,,
171,,choice,,html-keyboard-response,171,375452,0.0-1.0-35.0-0.0-0.0,0,0,64144,,1080.0,,,75.0,33.0,33.0,1000.0,1000.0,0.0,1.0,0.0,20-60,,0.0,baby carriage,power strip,20.0,60.0,baby carriage5,power strip11,20.0,40.0,Baby_Stroller.jpg,41Bw7Tl1G7L._AA262_.jpg,/static/Category_learning/Stimuli/Experimental_stims/baby carriage/Baby_Stroller.jpg,/static/Category_learning/Stimuli/Experimental_stims/power strip/41Bw7Tl1G7L._AA262_.jpg,0.0,power strip,baby carriage,60.0,20.0,power strip11,baby carriage5,40.0,20.0,0.0,169.08,1.08,,,,,,
172,,confirmation,,html-keyboard-response,172,375880,0.0-1.0-35.0-0.0-1.0-0.0,0,0,64144,,,,,,33.0,,,,,1.0,,,,,,,,,,,,,,,,,,,,,,,,,,,169.5,0.42,,,,,,
173,,isi,,html-keyboard-response,173,376885,0.0-1.0-35.0-0.0-2.0,0,0,64144,,,,,,33.0,,,,,1.0,,,,,,,,,,,,,,,,,,,,,,,,,,,170.5,1.0,,,,,,
174,,feedback,,html-keyboard-response,174,377891,0.0-1.0-35.0-0.0-3.0-0.0,0,0,64144,,,,,,33.0,,,,,1.0,,,,,,,,,,,,,,,,,,,,,,,,,,,171.5,1.0,,,,,,
175,,iti,,html-keyboard-response,175,378897,0.0-1.0-35.0-0.0-5.0,0,0,64144,,,,,,33.0,,,,,1.0,,,,,,,,,,,,,,,,,,,,,,,,,,,172.5,1.0,,,,,,
176,,choice,,html-keyboard-response,176,379973,0.0-1.0-36.0-0.0-0.0,0,0,64144,,1068.0,,,75.0,34.0,34.0,3500.0,1500.0,0.0,1.0,0.0,20-20,,,dresser,fan,20.0,20.0,dresser6,fan4,40.0,0.0,ADRESSE96.jpg,AFAN39.jpg,/static/Category_learning/Stimuli/Experimental_stims/dresser/ADRESSE96.jpg,/static/Category_learning/Stimuli/Experimental_stims/fan/AFAN39.jpg,0.0,fan,dresser,20.0,20.0,fan4,dresser6,0.0,40.0,0.0,173.568,1.068,,,,,,
177,,confirmation,,html-keyboard-response,177,380412,0.0-1.0-36.0-0.0-1.0-0.0,0,0,64144,,,,,,34.0,,,,,1.0,,,,,,,,,,,,,,,,,,,,,,,,,,,174.0,0.432,,,,,,
178,,isi,,html-keyboard-response,178,383915,0.0-1.0-36.0-0.0-2.0,0,0,64144,,,,,,34.0,,,,,1.0,,,,,,,,,,,,,,,,,,,,,,,,,,,177.5,3.5,,,,,,
179,,feedback,,html-keyboard-response,179,384920,0.0-1.0-36.0-0.0-3.0-0.0,0,0,64144,,,,,,34.0,,,,,1.0,,,,,,,,,,,,,,,,,,,,,,,,,,,178.5,1.0,,,,,,
180,,iti,,html-keyboard-response,180,386426,0.0-1.0-36.0-0.0-5.0,0,0,64144,,,,,,34.0,,,,,1.0,,,,,,,,,,,,,,,,,,,,,,,,,,,180.0,1.5,,,,,,
181,,choice,,html-keyboard-response,181,387237,0.0-1.0-37.0-0.0-0.0,0,0,64144,,803.0,,,68.0,35.0,35.0,1500.0,1500.0,0.0,1.0,0.0,20-80,,1.0,vase,bowl,80.0,20.0,vase9,bowl2,80.0,40.0,Avasewithang2.jpg,AMIXBOWL2.jpg,/static/Category_learning/Stimuli/Experimental_stims/vase/Avasewithang2.jpg,/static/Category_learning/Stimuli/Experimental_stims/bowl/AMIXBOWL2.jpg,1.0,vase,bowl,80.0,20.0,vase9,bowl2,80.0,40.0,0.0,180.803,0.803,,,,,,
182,,confirmation,,html-keyboard-response,182,387940,0.0-1.0-37.0-0.0-1.0-0.0,0,0,64144,,,,,,35.0,,,,,1.0,,,,,,,,,,,,,,,,,,,,,,,,,,,181.5,0.697,,,,,,
183,,isi,,html-keyboard-response,183,389446,0.0-1.0-37.0-0.0-2.0,0,0,64144,,,,,,35.0,,,,,1.0,,,,,,,,,,,,,,,,,,,,,,,,,,,183.0,1.5,,,,,,
184,,feedback,,html-keyboard-response,184,390451,0.0-1.0-37.0-0.0-3.0-0.0,0,0,64144,,,,,,35.0,,,,,1.0,,,,,,,,,,,,,,,,,,,,,,,,,,,184.0,1.0,,,,,,
185,,iti,,html-keyboard-response,185,391958,0.0-1.0-37.0-0.0-5.0,0,0,64144,,,,,,35.0,,,,,1.0,,,,,,,,,,,,,,,,,,,,,,,,,,,185.5,1.5,,,,,,
186,,choice,,html-keyboard-response,186,393172,0.0-1.0-38.0-0.0-0.0,0,0,64144,,1206.0,,,68.0,36.0,36.0,2000.0,1000.0,0.0,1.0,0.0,40-40,,,hammer,lipstick,40.0,40.0,hammer12,lipstick14,20.0,60.0,24oz hammer.jpg,P109907_hero.jpg,/static/Category_learning/Stimuli/Experimental_stims/hammer/24oz hammer.jpg,/static/Category_learning/Stimuli/Experimental_stims/lipstick/P109907_hero.jpg,1.0,hammer,lipstick,40.0,40.0,hammer12,lipstick14,20.0,60.0,0.0,186.706,1.206,,,,,,
187,,confirmation,,html-keyboard-response,187,393472,0.0-1.0-38.0-0.0-1.0-0.0,0,0,64144,,,,,,36.0,,,,,1.0,,,,,,,,,,,,,,,,,,,,,,,,,,,187.0,0.294,,,,,,
188,,isi,,html-keyboard-response,188,395478,0.0-1.0-38.0-0.0-2.0,0,0,64144,,,,,,36.0,,,,,1.0,,,,,,,,,,,,,,,,,,,,,,,,,,,189.0,2.0,,,,,,
189,,feedback,,html-keyboard-response,189,396485,0.0-1.0-38.0-0.0-3.0-0.0,0,0,64144,,,,,,36.0,,,,,1.0,,,,,,,,,,,,,,,,,,,,,,,,,,,190.0,1.0,,,,,,
190,,iti,,html-keyboard-response,190,397491,0.0-1.0-38.0-0.0-5.0,0,0,64144,,,,,,36.0,,,,,1.0,,,,,,,,,,,,,,,,,,,,,,,,,,,191.0,1.0,,,,,,
191,,choice,,html-keyboard-response,191,398685,0.0-1.0-39.0-0.0-0.0,0,0,64144,,1182.0,,,68.0,37.0,37.0,3000.0,2000.0,0.0,1.0,1.0,20-20,1.0,,fan,fan,20.0,20.0,fan14,fan4,40.0,0.0,124771_sk_lg.jpg,AFAN39.jpg,/static/Category_learning/Stimuli/Experimental_stims/fan/124771_sk_lg.jpg,/static/Category_learning/Stimuli/Experimental_stims/fan/AFAN39.jpg,1.0,fan,fan,20.0,20.0,fan14,fan4,40.0,0.0,0.0,192.182,1.182,,,,,,
192,,confirmation,,html-keyboard-response,192,399010,0.0-1.0-39.0-0.0-1.0-0.0,0,0,64144,,,,,,37.0,,,,,1.0,,,,,,,,,,,,,,,,,,,,,,,,,,,192.5,0.318,,,,,,
193,,isi,,html-keyboard-response,193,402016,0.0-1.0-39.0-0.0-2.0,0,0,64144,,,,,,37.0,,,,,1.0,,,,,,,,,,,,,,,,,,,,,,,,,,,195.5,3.0,,,,,,
194,,feedback,,html-keyboard-response,194,403022,0.0-1.0-39.0-0.0-3.0-0.0,0,0,64144,,,,,,37.0,,,,,1.0,,,,,,,,,,,,,,,,,,,,,,,,,,,196.5,1.0,,,,,,
195,,iti,,html-keyboard-response,195,405028,0.0-1.0-39.0-0.0-5.0,0,0,64144,,,,,,37.0,,,,,1.0,,,,,,,,,,,,,,,,,,,,,,,,,,,198.5,2.0,,,,,,
196,,choice,,html-keyboard-response,196,406018,0.0-1.0-40.0-0.0-0.0,0,0,64144,,983.0,,,75.0,38.0,38.0,1500.0,3000.0,0.0,1.0,0.0,20-60,,1.0,poker card,door knob,60.0,20.0,poker card13,door knob14,80.0,20.0,9817197.thl.jpg,500_CLANYKAB.jpg,/static/Category_learning/Stimuli/Experimental_stims/poker card/9817197.thl.jpg,/static/Category_learning/Stimuli/Experimental_stims/door knob/500_CLANYKAB.jpg,0.0,door knob,poker card,20.0,60.0,door knob14,poker card13,20.0,80.0,0.0,199.483,0.983,,,,,,
197,,confirmation,,html-keyboard-response,197,406543,0.0-1.0-40.0-0.0-1.0-0.0,0,0,64144,,,,,,38.0,,,,,1.0,,,,,,,,,,,,,,,,,,,,,,,,,,,200.0,0.517,,,,,,
198,,isi,,html-keyboard-response,198,408048,0.0-1.0-40.0-0.0-2.0,0,0,64144,,,,,,38.0,,,,,1.0,,,,,,,,,,,,,,,,,,,,,,,,,,,201.5,1.5,,,,,,
199,,feedback,,html-keyboard-response,199,409056,0.0-1.0-40.0-0.0-3.0-0.0,0,0,64144,,,,,,38.0,,,,,1.0,,,,,,,,,,,,,,,,,,,,,,,,,,,202.5,1.0,,,,,,
200,,iti,,html-keyboard-response,200,412063,0.0-1.0-40.0-0.0-5.0,0,0,64144,,,,,,38.0,,,,,1.0,,,,,,,,,,,,,,,,,,,,,,,,,,,205.5,3.0,,,,,,
201,,choice,,html-keyboard-response,201,413210,0.0-1.0-41.0-0.0-0.0,0,0,64144,,1139.0,,,68.0,39.0,39.0,3500.0,1000.0,0.0,1.0,1.0,60-80,0.0,,power strip,vase,60.0,80.0,power strip11,vase9,40.0,80.0,41Bw7Tl1G7L._AA262_.jpg,Avasewithang2.jpg,/static/Category_learning/Stimuli/Experimental_stims/power strip/41Bw7Tl1G7L._AA262_.jpg,/static/Category_learning/Stimuli/Experimental_stims/vase/Avasewithang2.jpg,1.0,power strip,vase,60.0,80.0,power strip11,vase9,40.0,80.0,0.0,206.639,1.139,,,,,,
202,,confirmation,,html-keyboard-response,202,413577,0.0-1.0-41.0-0.0-1.0-0.0,0,0,64144,,,,,,39.0,,,,,1.0,,,,,,,,,,,,,,,,,,,,,,,,,,,207.0,0.361,,,,,,
203,,isi,,html-keyboard-response,203,417083,0.0-1.0-41.0-0.0-2.0,0,0,64144,,,,,,39.0,,,,,1.0,,,,,,,,,,,,,,,,,,,,,,,,,,,210.5,3.5,,,,,,
204,,feedback,,html-keyboard-response,204,418088,0.0-1.0-41.0-0.0-3.0-0.0,0,0,64144,,,,,,39.0,,,,,1.0,,,,,,,,,,,,,,,,,,,,,,,,,,,211.5,1.0,,,,,,
205,,iti,,html-keyboard-response,205,419093,0.0-1.0-41.0-0.0-5.0,0,0,64144,,,,,,39.0,,,,,1.0,,,,,,,,,,,,,,,,,,,,,,,,,,,212.5,1.0,,,,,,
206,,choice,,html-keyboard-response,206,420067,0.0-1.0-42.0-0.0-0.0,0,0,64144,,965.0,,,75.0,40.0,40.0,2000.0,3000.0,0.0,1.0,1.0,20-80,0.0,,bowl,watch,20.0,80.0,bowl6,watch10,20.0,100.0,Abowl59.jpg,HEU0102124_zoom.jpg,/static/Category_learning/Stimuli/Experimental_stims/bowl/Abowl59.jpg,/static/Category_learning/Stimuli/Experimental_stims/watch/HEU0102124_zoom.jpg,0.0,watch,bowl,80.0,20.0,watch10,bowl6,100.0,20.0,0.0,213.465,0.965,,,,,,
207,,confirmation,,html-keyboard-response,207,420610,0.0-1.0-42.0-0.0-1.0-0.0,0,0,64144,,,,,,40.0,,,,,1.0,,,,,,,,,,,,,,,,,,,,,,,,,,,214.0,0.535,,,,,,
208,,isi,,html-keyboard-response,208,422615,0.0-1.0-42.0-0.0-2.0,0,0,64144,,,,,,40.0,,,,,1.0,,,,,,,,,,,,,,,,,,,,,,,,,,,216.0,2.0,,,,,,
209,,feedback,,html-keyboard-response,209,423622,0.0-1.0-42.0-0.0-3.0-0.0,0,0,64144,,,,,,40.0,,,,,1.0,,,,,,,,,,,,,,,,,,,,,,,,,,,217.0,1.0,,,,,,
210,,iti,,html-keyboard-response,210,426628,0.0-1.0-42.0-0.0-5.0,0,0,64144,,,,,,40.0,,,,,1.0,,,,,,,,,,,,,,,,,,,,,,,,,,,220.0,3.0,,,,,,
211,,choice,,html-keyboard-response,211,427735,0.0-1.0-43.0-0.0-0.0,0,0,64144,,1100.0,,,68.0,41.0,41.0,1000.0,1000.0,0.0,1.0,0.0,20-60,,1.0,small table,bongo,60.0,20.0,small table4,bongo9,40.0,20.0,ACOFTABLE.jpg,22946035.thl.jpg,/static/Category_learning/Stimuli/Experimental_stims/small table/ACOFTABLE.jpg,/static/Category_learning/Stimuli/Experimental_stims/bongo/22946035.thl.jpg,1.0,small table,bongo,60.0,20.0,small table4,bongo9,40.0,20.0,0.0,221.1,1.1,,,,,,
212,,confirmation,,html-keyboard-response,212,428140,0.0-1.0-43.0-0.0-1.0-0.0,0,0,64144,,,,,,41.0,,,,,1.0,,,,,,,,,,,,,,,,,,,,,,,,,,,221.5,0.4,,,,,,
213,,isi,,html-keyboard-response,213,429147,0.0-1.0-43.0-0.0-2.0,0,0,64144,,,,,,41.0,,,,,1.0,,,,,,,,,,,,,,,,,,,,,,,,,,,222.5,1.0,,,,,,
214,,feedback,,html-keyboard-response,214,430152,0.0-1.0-43.0-0.0-3.0-0.0,0,0,64144,,,,,,41.0,,,,,1.0,,,,,,,,,,,,,,,,,,,,,,,,,,,223.5,1.0,,,,,,
215,,iti,,html-keyboard-response,215,431157,0.0-1.0-43.0-0.0-5.0,0,0,64144,,,,,,41.0,,,,,1.0,,,,,,,,,,,,,,,,,,,,,,,,,,,224.5,1.0,,,,,,
216,,choice,,html-keyboard-response,216,432333,0.0-1.0-44.0-0.0-0.0,0,0,64144,,1167.0,,,75.0,42.0,42.0,3500.0,1000.0,0.0,1.0,0.0,60-60,,,necklace,poker card,60.0,60.0,necklace2,poker card5,40.0,40.0,Anecklace7.jpg,22864800.thl.jpg,/static/Category_learning/Stimuli/Experimental_stims/necklace/Anecklace7.jpg,/static/Category_learning/Stimuli/Experimental_stims/poker card/22864800.thl.jpg,0.0,poker card,necklace,60.0,60.0,poker card5,necklace2,40.0,40.0,0.0,225.667,1.167,,,,,,
217,,confirmation,,html-keyboard-response,217,432672,0.0-1.0-44.0-0.0-1.0-0.0,0,0,64144,,,,,,42.0,,,,,1.0,,,,,,,,,,,,,,,,,,,,,,,,,,,226.0,0.333,,,,,,
218,,isi,,html-keyboard-response,218,436178,0.0-1.0-44.0-0.0-2.0,0,0,64144,,,,,,42.0,,,,,1.0,,,,,,,,,,,,,,,,,,,,,,,,,,,229.5,3.5,,,,,,
219,,feedback,,html-keyboard-response,219,437184,0.0-1.0-44.0-0.0-3.0-0.0,0,0,64144,,,,,,42.0,,,,,1.0,,,,,,,,,,,,,,,,,,,,,,,,,,,230.5,1.0,,,,,,
220,,iti,,html-keyboard-response,220,438190,0.0-1.0-44.0-0.0-5.0,0,0,64144,,,,,,42.0,,,,,1.0,,,,,,,,,,,,,,,,,,,,,,,,,,,231.5,1.0,,,,,,
221,,choice,,html-keyboard-response,221,439454,0.0-1.0-45.0-0.0-0.0,0,0,64144,,1255.0,,,75.0,43.0,43.0,2000.0,2000.0,0.0,1.0,0.0,40-60,,0.0,lipstick,power strip,40.0,60.0,lipstick10,power strip10,60.0,60.0,21K0D7QKFAL._SS500_.jpg,6bd437c9-6165-4d36-bf75-9a1038783c6a_400.jpg,/static/Category_learning/Stimuli/Experimental_stims/lipstick/21K0D7QKFAL._SS500_.jpg,/static/Category_learning/Stimuli/Experimental_stims/power strip/6bd437c9-6165-4d36-bf75-9a1038783c6a_400.jpg,0.0,power strip,lipstick,60.0,40.0,power strip10,lipstick10,60.0,60.0,0.0,232.755,1.255,,,,,,
222,,confirmation,,html-keyboard-response,222,439707,0.0-1.0-45.0-0.0-1.0-0.0,0,0,64144,,,,,,43.0,,,,,1.0,,,,,,,,,,,,,,,,,,,,,,,,,,,233.0,0.245,,,,,,
223,,isi,,html-keyboard-response,223,441713,0.0-1.0-45.0-0.0-2.0,0,0,64144,,,,,,43.0,,,,,1.0,,,,,,,,,,,,,,,,,,,,,,,,,,,235.0,2.0,,,,,,
224,,feedback,,html-keyboard-response,224,442721,0.0-1.0-45.0-0.0-3.0-0.0,0,0,64144,,,,,,43.0,,,,,1.0,,,,,,,,,,,,,,,,,,,,,,,,,,,236.0,1.0,,,,,,
225,,iti,,html-keyboard-response,225,444727,0.0-1.0-45.0-0.0-5.0,0,0,64144,,,,,,43.0,,,,,1.0,,,,,,,,,,,,,,,,,,,,,,,,,,,238.0,2.0,,,,,,
226,,choice,,html-keyboard-response,226,445622,0.0-1.0-46.0-0.0-0.0,0,0,64144,,887.0,,,68.0,44.0,44.0,1000.0,3000.0,0.0,1.0,1.0,20-40,0.0,,flashlight,hammer,20.0,40.0,flashlight5,hammer12,0.0,20.0,Streamlight-71001-Jr-Flashlight-W-batteries-black-B00018A3CG-L.jpg,24oz hammer.jpg,/static/Category_learning/Stimuli/Experimental_stims/flashlight/Streamlight-71001-Jr-Flashlight-W-batteries-black-B00018A3CG-L.jpg,/static/Category_learning/Stimuli/Experimental_stims/hammer/24oz hammer.jpg,1.0,flashlight,hammer,20.0,40.0,flashlight5,hammer12,0.0,20.0,0.0,238.887,0.887,,,,,,
227,,confirmation,,html-keyboard-response,227,446243,0.0-1.0-46.0-0.0-1.0-0.0,0,0,64144,,,,,,44.0,,,,,1.0,,,,,,,,,,,,,,,,,,,,,,,,,,,239.5,0.613,,,,,,
228,,isi,,html-keyboard-response,228,447249,0.0-1.0-46.0-0.0-2.0,0,0,64144,,,,,,44.0,,,,,1.0,,,,,,,,,,,,,,,,,,,,,,,,,,,240.5,1.0,,,,,,
229,,feedback,,html-keyboard-response,229,448255,0.0-1.0-46.0-0.0-3.0-0.0,0,0,64144,,,,,,44.0,,,,,1.0,,,,,,,,,,,,,,,,,,,,,,,,,,,241.5,1.0,,,,,,
230,,iti,,html-keyboard-response,230,451261,0.0-1.0-46.0-0.0-5.0,0,0,64144,,,,,,44.0,,,,,1.0,,,,,,,,,,,,,,,,,,,,,,,,,,,244.5,3.0,,,,,,
231,,choice,,html-keyboard-response,231,452759,0.0-1.0-47.0-0.0-0.0,0,0,64144,,1488.0,,,68.0,45.0,45.0,1500.0,1000.0,0.0,1.0,1.0,40-60,0.0,,poker card,license plate,60.0,40.0,poker card5,license plate12,40.0,20.0,22864800.thl.jpg,TurtleLicensePlate.jpg,/static/Category_learning/Stimuli/Experimental_stims/poker card/22864800.thl.jpg,/static/Category_learning/Stimuli/Experimental_stims/license plate/TurtleLicensePlate.jpg,1.0,poker card,license plate,60.0,40.0,poker card5,license plate12,40.0,20.0,0.0,245.988,1.488,,,,,,
232,,confirmation,,html-keyboard-response,232,452777,0.0-1.0-47.0-0.0-1.0-0.0,0,0,64144,,,,,,45.0,,,,,1.0,,,,,,,,,,,,,,,,,,,,,,,,,,,246.0,0.012,,,,,,
233,,isi,,html-keyboard-response,233,454283,0.0-1.0-47.0-0.0-2.0,0,0,64144,,,,,,45.0,,,,,1.0,,,,,,,,,,,,,,,,,,,,,,,,,,,247.5,1.5,,,,,,
234,,feedback,,html-keyboard-response,234,455287,0.0-1.0-47.0-0.0-3.0-0.0,0,0,64144,,,,,,45.0,,,,,1.0,,,,,,,,,,,,,,,,,,,,,,,,,,,248.5,1.0,,,,,,
235,,iti,,html-keyboard-response,235,456292,0.0-1.0-47.0-0.0-5.0,0,0,64144,,,,,,45.0,,,,,1.0,,,,,,,,,,,,,,,,,,,,,,,,,,,249.5,1.0,,,,,,
236,,choice,,html-keyboard-response,236,457608,0.0-1.0-48.0-0.0-0.0,0,0,64144,,1304.0,,,68.0,46.0,46.0,1000.0,1500.0,0.0,1.0,0.0,20-40,,0.0,bongo,hammer,20.0,40.0,bongo13,hammer4,0.0,40.0,26388718.thl.jpg,hammernew01.jpg,/static/Category_learning/Stimuli/Experimental_stims/bongo/26388718.thl.jpg,/static/Category_learning/Stimuli/Experimental_stims/hammer/hammernew01.jpg,1.0,bongo,hammer,20.0,40.0,bongo13,hammer4,0.0,40.0,0.0,250.804,1.304,,,,,,
237,,confirmation,,html-keyboard-response,237,457812,0.0-1.0-48.0-0.0-1.0-0.0,0,0,64144,,,,,,46.0,,,,,1.0,,,,,,,,,,,,,,,,,,,,,,,,,,,251.0,0.196,,,,,,
238,,isi,,html-keyboard-response,238,458820,0.0-1.0-48.0-0.0-2.0,0,0,64144,,,,,,46.0,,,,,1.0,,,,,,,,,,,,,,,,,,,,,,,,,,,252.0,1.0,,,,,,
239,,feedback,,html-keyboard-response,239,459828,0.0-1.0-48.0-0.0-3.0-0.0,0,0,64144,,,,,,46.0,,,,,1.0,,,,,,,,,,,,,,,,,,,,,,,,,,,253.0,1.0,,,,,,
240,,iti,,html-keyboard-response,240,461335,0.0-1.0-48.0-0.0-5.0,0,0,64144,,,,,,46.0,,,,,1.0,,,,,,,,,,,,,,,,,,,,,,,,,,,254.5,1.5,,,,,,
241,,choice,,html-keyboard-response,241,462699,0.0-1.0-49.0-0.0-0.0,0,0,64144,,1352.0,,,75.0,47.0,47.0,1000.0,2000.0,0.0,1.0,0.0,40-80,,1.0,telescope,frame,80.0,40.0,telescope15,frame3,80.0,40.0,VictorianDeskTelescope.jpg,AFRAME132.jpg,/static/Category_learning/Stimuli/Experimental_stims/telescope/VictorianDeskTelescope.jpg,/static/Category_learning/Stimuli/Experimental_stims/frame/AFRAME132.jpg,0.0,frame,telescope,40.0,80.0,frame3,telescope15,40.0,80.0,0.0,255.852,1.352,,,,,,
242,,confirmation,,html-keyboard-response,242,462853,0.0-1.0-49.0-0.0-1.0-0.0,0,0,64144,,,,,,47.0,,,,,1.0,,,,,,,,,,,,,,,,,,,,,,,,,,,256.0,0.148,,,,,,
243,,isi,,html-keyboard-response,243,463859,0.0-1.0-49.0-0.0-2.0,0,0,64144,,,,,,47.0,,,,,1.0,,,,,,,,,,,,,,,,,,,,,,,,,,,257.0,1.0,,,,,,
244,,feedback,,html-keyboard-response,244,464867,0.0-1.0-49.0-0.0-3.0-0.0,0,0,64144,,,,,,47.0,,,,,1.0,,,,,,,,,,,,,,,,,,,,,,,,,,,258.0,1.0,,,,,,
245,,iti,,html-keyboard-response,245,466872,0.0-1.0-49.0-0.0-5.0,0,0,64144,,,,,,47.0,,,,,1.0,,,,,,,,,,,,,,,,,,,,,,,,,,,260.0,2.0,,,,,,
246,,choice,,html-keyboard-response,246,466885,0.0-1.0-50.0-0.0-0.0,0,0,64144,,0.0,,,75.0,48.0,48.0,1000.0,2000.0,0.0,1.0,0.0,20-20,,,bench,flashlight,20.0,20.0,bench5,flashlight3,0.0,20.0,APARKBEN8.jpg,sl_tasklight_2l3w.jpg,/static/Category_learning/Stimuli/Experimental_stims/bench/APARKBEN8.jpg,/static/Category_learning/Stimuli/Experimental_stims/flashlight/sl_tasklight_2l3w.jpg,0.0,flashlight,bench,20.0,20.0,flashlight3,bench5,20.0,0.0,0.0,260.0,0.0,,,,,,
247,,confirmation,,html-keyboard-response,247,468392,0.0-1.0-50.0-0.0-1.0-0.0,0,0,64144,,,,,,48.0,,,,,1.0,,,,,,,,,,,,,,,,,,,,,,,,,,,261.5,1.5,,,,,,
248,,isi,,html-keyboard-response,248,469398,0.0-1.0-50.0-0.0-2.0,0,0,64144,,,,,,48.0,,,,,1.0,,,,,,,,,,,,,,,,,,,,,,,,,,,262.5,1.0,,,,,,
249,,feedback,,html-keyboard-response,249,470406,0.0-1.0-50.0-0.0-3.0-0.0,0,0,64144,,,,,,48.0,,,,,1.0,,,,,,,,,,,,,,,,,,,,,,,,,,,263.5,1.0,,,,,,
250,,iti,,html-keyboard-response,250,472411,0.0-1.0-50.0-0.0-5.0,0,0,64144,,,,,,48.0,,,,,1.0,,,,,,,,,,,,,,,,,,,,,,,,,,,265.5,2.0,,,,,,
251,,choice,,html-keyboard-response,251,473781,0.0-1.0-51.0-0.0-0.0,0,0,64144,,1358.0,,,75.0,49.0,49.0,1500.0,1500.0,0.0,1.0,1.0,60-80,0.0,,stool,small table,80.0,60.0,stool12,small table4,80.0,40.0,henrybar_stool1.jpg,ACOFTABLE.jpg,/static/Category_learning/Stimuli/Experimental_stims/stool/henrybar_stool1.jpg,/static/Category_learning/Stimuli/Experimental_stims/small table/ACOFTABLE.jpg,0.0,small table,stool,60.0,80.0,small table4,stool12,40.0,80.0,0.0,266.858,1.358,,,,,,
252,,confirmation,,html-keyboard-response,252,473930,0.0-1.0-51.0-0.0-1.0-0.0,0,0,64144,,,,,,49.0,,,,,1.0,,,,,,,,,,,,,,,,,,,,,,,,,,,267.0,0.142,,,,,,
253,,isi,,html-keyboard-response,253,475438,0.0-1.0-51.0-0.0-2.0,0,0,64144,,,,,,49.0,,,,,1.0,,,,,,,,,,,,,,,,,,,,,,,,,,,268.5,1.5,,,,,,
254,,feedback,,html-keyboard-response,254,476445,0.0-1.0-51.0-0.0-3.0-0.0,0,0,64144,,,,,,49.0,,,,,1.0,,,,,,,,,,,,,,,,,,,,,,,,,,,269.5,1.0,,,,,,
255,,iti,,html-keyboard-response,255,477952,0.0-1.0-51.0-0.0-5.0,0,0,64144,,,,,,49.0,,,,,1.0,,,,,,,,,,,,,,,,,,,,,,,,,,,271.0,1.5,,,,,,
256,,choice,,html-keyboard-response,256,478945,0.0-1.0-52.0-0.0-0.0,0,0,64144,,981.0,,,68.0,50.0,50.0,1000.0,1500.0,0.0,1.0,0.0,40-80,,0.0,frame,vase,40.0,80.0,frame11,vase14,60.0,80.0,AFRAME139.jpg,Avase119.jpg,/static/Category_learning/Stimuli/Experimental_stims/frame/AFRAME139.jpg,/static/Category_learning/Stimuli/Experimental_stims/vase/Avase119.jpg,1.0,frame,vase,40.0,80.0,frame11,vase14,60.0,80.0,0.0,271.981,0.981,,,,,,
257,,confirmation,,html-keyboard-response,257,479471,0.0-1.0-52.0-0.0-1.0-0.0,0,0,64144,,,,,,50.0,,,,,1.0,,,,,,,,,,,,,,,,,,,,,,,,,,,272.5,0.519,,,,,,
258,,isi,,html-keyboard-response,258,480478,0.0-1.0-52.0-0.0-2.0,0,0,64144,,,,,,50.0,,,,,1.0,,,,,,,,,,,,,,,,,,,,,,,,,,,273.5,1.0,,,,,,
259,,feedback,,html-keyboard-response,259,481483,0.0-1.0-52.0-0.0-3.0-0.0,0,0,64144,,,,,,50.0,,,,,1.0,,,,,,,,,,,,,,,,,,,,,,,,,,,274.5,1.0,,,,,,
260,,iti,,html-keyboard-response,260,482989,0.0-1.0-52.0-0.0-5.0,0,0,64144,,,,,,50.0,,,,,1.0,,,,,,,,,,,,,,,,,,,,,,,,,,,276.0,1.5,,,,,,
261,,choice,,html-keyboard-response,261,483993,0.0-1.0-53.0-0.0-0.0,0,0,64144,,990.0,,,68.0,51.0,51.0,2000.0,2000.0,0.0,1.0,0.0,20-60,,1.0,seashell,door knob,60.0,20.0,seashell11,door knob1,80.0,0.0,ASEASH12.jpg,Brass_Door_Handle.jpg,/static/Category_learning/Stimuli/Experimental_stims/seashell/ASEASH12.jpg,/static/Category_learning/Stimuli/Experimental_stims/door knob/Brass_Door_Handle.jpg,1.0,seashell,door knob,60.0,20.0,seashell11,door knob1,80.0,0.0,0.0,276.99,0.99,,,,,,
262,,confirmation,,html-keyboard-response,262,484512,0.0-1.0-53.0-0.0-1.0-0.0,0,0,64144,,,,,,51.0,,,,,1.0,,,,,,,,,,,,,,,,,,,,,,,,,,,277.5,0.51,,,,,,
263,,isi,,html-keyboard-response,263,486519,0.0-1.0-53.0-0.0-2.0,0,0,64144,,,,,,51.0,,,,,1.0,,,,,,,,,,,,,,,,,,,,,,,,,,,279.5,2.0,,,,,,
264,,feedback,,html-keyboard-response,264,487525,0.0-1.0-53.0-0.0-3.0-0.0,0,0,64144,,,,,,51.0,,,,,1.0,,,,,,,,,,,,,,,,,,,,,,,,,,,280.5,1.0,,,,,,
265,,iti,,html-keyboard-response,265,489530,0.0-1.0-53.0-0.0-5.0,0,0,64144,,,,,,51.0,,,,,1.0,,,,,,,,,,,,,,,,,,,,,,,,,,,282.5,2.0,,,,,,
266,,choice,,html-keyboard-response,266,490739,0.0-1.0-54.0-0.0-0.0,0,0,64144,,1197.0,,,68.0,52.0,52.0,2000.0,1000.0,0.0,1.0,0.0,20-40,,0.0,flashlight,makeup compact,20.0,40.0,flashlight2,makeup compact13,0.0,40.0,AV-9 No Battery Flashlight.jpg,31YfapjS3TL._AA250_.jpg,/static/Category_learning/Stimuli/Experimental_stims/flashlight/AV-9 No Battery Flashlight.jpg,/static/Category_learning/Stimuli/Experimental_stims/makeup compact/31YfapjS3TL._AA250_.jpg,1.0,flashlight,makeup compact,20.0,40.0,flashlight2,makeup compact13,0.0,40.0,0.0,283.697,1.197,,,,,,
267,,confirmation,,html-keyboard-response,267,491050,0.0-1.0-54.0-0.0-1.0-0.0,0,0,64144,,,,,,52.0,,,,,1.0,,,,,,,,,,,,,,,,,,,,,,,,,,,284.0,0.303,,,,,,
268,,isi,,html-keyboard-response,268,493058,0.0-1.0-54.0-0.0-2.0,0,0,64144,,,,,,52.0,,,,,1.0,,,,,,,,,,,,,,,,,,,,,,,,,,,286.0,2.0,,,,,,
269,,feedback,,html-keyboard-response,269,494065,0.0-1.0-54.0-0.0-3.0-0.0,0,0,64144,,,,,,52.0,,,,,1.0,,,,,,,,,,,,,,,,,,,,,,,,,,,287.0,1.0,,,,,,
270,,iti,,html-keyboard-response,270,495071,0.0-1.0-54.0-0.0-5.0,0,0,64144,,,,,,52.0,,,,,1.0,,,,,,,,,,,,,,,,,,,,,,,,,,,288.0,1.0,,,,,,
271,,choice,,html-keyboard-response,271,496537,0.0-1.0-55.0-0.0-0.0,0,0,64144,,1459.0,,,75.0,53.0,53.0,1500.0,1000.0,0.0,1.0,0.0,20-60,,1.0,sofa,bongo,60.0,20.0,sofa4,bongo4,40.0,0.0,ALOVSEA15.jpg,26390708.thl.jpg,/static/Category_learning/Stimuli/Experimental_stims/sofa/ALOVSEA15.jpg,/static/Category_learning/Stimuli/Experimental_stims/bongo/26390708.thl.jpg,0.0,bongo,sofa,20.0,60.0,bongo4,sofa4,0.0,40.0,0.0,289.459,1.459,,,,,,
272,,confirmation,,html-keyboard-response,272,496587,0.0-1.0-55.0-0.0-1.0-0.0,0,0,64144,,,,,,53.0,,,,,1.0,,,,,,,,,,,,,,,,,,,,,,,,,,,289.5,0.041,,,,,,
273,,isi,,html-keyboard-response,273,498093,0.0-1.0-55.0-0.0-2.0,0,0,64144,,,,,,53.0,,,,,1.0,,,,,,,,,,,,,,,,,,,,,,,,,,,291.0,1.5,,,,,,
274,,feedback,,html-keyboard-response,274,499100,0.0-1.0-55.0-0.0-3.0-0.0,0,0,64144,,,,,,53.0,,,,,1.0,,,,,,,,,,,,,,,,,,,,,,,,,,,292.0,1.0,,,,,,
275,,iti,,html-keyboard-response,275,500105,0.0-1.0-55.0-0.0-5.0,0,0,64144,,,,,,53.0,,,,,1.0,,,,,,,,,,,,,,,,,,,,,,,,,,,293.0,1.0,,,,,,
276,,choice,,html-keyboard-response,276,501619,0.0-1.0-56.0-0.0-0.0,0,0,64144,,,,,,54.0,54.0,1000.0,1000.0,0.0,1.0,1.0,20-20,1.0,,flashlight,flashlight,20.0,20.0,flashlight3,flashlight2,20.0,0.0,sl_tasklight_2l3w.jpg,AV-9 No Battery Flashlight.jpg,/static/Category_learning/Stimuli/Experimental_stims/flashlight/sl_tasklight_2l3w.jpg,/static/Category_learning/Stimuli/Experimental_stims/flashlight/AV-9 No Battery Flashlight.jpg,,,,,,,,,,1.0,294.5,1.5,,,,,,
277,,isi,,html-keyboard-response,277,502626,0.0-1.0-56.0-0.0-2.0,0,0,64144,,,,,,54.0,,,,,1.0,,,,,,,,,,,,,,,,,,,,,,,,,,,295.5,1.0,,,,,,
278,,no_response,,html-keyboard-response,278,503632,0.0-1.0-56.0-0.0-4.0-0.0,0,0,64144,,,,,,54.0,,,,,1.0,,,,,,,,,,,,,,,,,,,,,,,,,,,296.5,1.0,,,,,,
279,,iti,,html-keyboard-response,279,504655,0.0-1.0-56.0-0.0-5.0,0,0,64144,,,,,,54.0,,,,,1.0,,,,,,,,,,,,,,,,,,,,,,,,,,,297.5,1.0,,,,,,
280,,choice,,html-keyboard-response,280,505362,0.0-1.0-56.0-0.1-0.1,0,0,64144,,696.0,,,68.0,54.0,54.0,1000.0,1000.0,0.0,1.0,1.0,20-20,1.0,,flashlight,flashlight,20.0,20.0,flashlight3,flashlight2,20.0,0.0,sl_tasklight_2l3w.jpg,AV-9 No Battery Flashlight.jpg,/static/Category_learning/Stimuli/Experimental_stims/flashlight/sl_tasklight_2l3w.jpg,/static/Category_learning/Stimuli/Experimental_stims/flashlight/AV-9 No Battery Flashlight.jpg,1.0,flashlight,flashlight,20.0,20.0,flashlight3,flashlight2,20.0,0.0,0.0,298.196,0.696,,,,,,
281,,confirmation,,html-keyboard-response,281,506174,0.0-1.0-56.0-0.1-1.1-0.1,0,0,64144,,,,,,54.0,,,,,1.0,,,,,,,,,,,,,,,,,,,,,,,,,,,299.0,0.804,,,,,,
282,,isi,,html-keyboard-response,282,507180,0.0-1.0-56.0-0.1-2.1,0,0,64144,,,,,,54.0,,,,,1.0,,,,,,,,,,,,,,,,,,,,,,,,,,,300.0,1.0,,,,,,
283,,feedback,,html-keyboard-response,283,508186,0.0-1.0-56.0-0.1-3.1-0.1,0,0,64144,,,,,,54.0,,,,,1.0,,,,,,,,,,,,,,,,,,,,,,,,,,,301.0,1.0,,,,,,
284,,iti,,html-keyboard-response,284,511692,0.0-1.0-56.0-0.1-5.1,0,0,64144,,,,,,54.0,,,,,1.0,,,,,,,,,,,,,,,,,,,,,,,,,,,304.5,3.5,,,,,,
285,,choice,,html-keyboard-response,285,512541,0.0-1.0-57.0-0.0-0.0,0,0,64144,,836.0,,,68.0,55.0,55.0,1000.0,1500.0,0.0,1.0,0.0,20-80,,0.0,flashlight,train,20.0,80.0,flashlight14,train11,20.0,60.0,freeplay-jonta-flashlight.jpg,train1.jpg,/static/Category_learning/Stimuli/Experimental_stims/flashlight/freeplay-jonta-flashlight.jpg,/static/Category_learning/Stimuli/Experimental_stims/train/train1.jpg,1.0,flashlight,train,20.0,80.0,flashlight14,train11,20.0,60.0,0.0,305.336,0.836,,,,,,
286,,confirmation,,html-keyboard-response,286,513212,0.0-1.0-57.0-0.0-1.0-0.0,0,0,64144,,,,,,55.0,,,,,1.0,,,,,,,,,,,,,,,,,,,,,,,,,,,306.0,0.664,,,,,,
287,,isi,,html-keyboard-response,287,514217,0.0-1.0-57.0-0.0-2.0,0,0,64144,,,,,,55.0,,,,,1.0,,,,,,,,,,,,,,,,,,,,,,,,,,,307.0,1.0,,,,,,
288,,feedback,,html-keyboard-response,288,515224,0.0-1.0-57.0-0.0-3.0-0.0,0,0,64144,,,,,,55.0,,,,,1.0,,,,,,,,,,,,,,,,,,,,,,,,,,,308.0,1.0,,,,,,
289,,iti,,html-keyboard-response,289,516730,0.0-1.0-57.0-0.0-5.0,0,0,64144,,,,,,55.0,,,,,1.0,,,,,,,,,,,,,,,,,,,,,,,,,,,309.5,1.5,,,,,,
290,,choice,,html-keyboard-response,290,517936,0.0-1.0-58.0-0.0-0.0,0,0,64144,,1198.0,,,75.0,56.0,56.0,1000.0,1500.0,0.0,1.0,0.0,20-80,,0.0,fan,stool,20.0,80.0,fan12,stool9,0.0,100.0,116544_sk_lg.jpg,ASTOOL7.jpg,/static/Category_learning/Stimuli/Experimental_stims/fan/116544_sk_lg.jpg,/static/Category_learning/Stimuli/Experimental_stims/stool/ASTOOL7.jpg,0.0,stool,fan,80.0,20.0,stool9,fan12,100.0,0.0,0.0,310.698,1.198,,,,,,
291,,confirmation,,html-keyboard-response,291,518247,0.0-1.0-58.0-0.0-1.0-0.0,0,0,64144,,,,,,56.0,,,,,1.0,,,,,,,,,,,,,,,,,,,,,,,,,,,311.0,0.302,,,,,,
292,,isi,,html-keyboard-response,292,519254,0.0-1.0-58.0-0.0-2.0,0,0,64144,,,,,,56.0,,,,,1.0,,,,,,,,,,,,,,,,,,,,,,,,,,,312.0,1.0,,,,,,
293,,feedback,,html-keyboard-response,293,520261,0.0-1.0-58.0-0.0-3.0-0.0,0,0,64144,,,,,,56.0,,,,,1.0,,,,,,,,,,,,,,,,,,,,,,,,,,,313.0,1.0,,,,,,
294,,iti,,html-keyboard-response,294,521767,0.0-1.0-58.0-0.0-5.0,0,0,64144,,,,,,56.0,,,,,1.0,,,,,,,,,,,,,,,,,,,,,,,,,,,314.5,1.5,,,,,,
295,,choice,,html-keyboard-response,295,522689,0.0-1.0-59.0-0.0-0.0,0,0,64144,,909.0,,,75.0,57.0,57.0,1500.0,1000.0,0.0,1.0,0.0,20-40,,1.0,motorcycle,bench,40.0,20.0,motorcycle12,bench4,40.0,0.0,motorcycle14.jpg,30892819.thl.jpg,/static/Category_learning/Stimuli/Experimental_stims/motorcycle/motorcycle14.jpg,/static/Category_learning/Stimuli/Experimental_stims/bench/30892819.thl.jpg,0.0,bench,motorcycle,20.0,40.0,bench4,motorcycle12,0.0,40.0,0.0,315.409,0.909,,,,,,
296,,confirmation,,html-keyboard-response,296,523287,0.0-1.0-59.0-0.0-1.0-0.0,0,0,64144,,,,,,57.0,,,,,1.0,,,,,,,,,,,,,,,,,,,,,,,,,,,316.0,0.591,,,,,,
297,,isi,,html-keyboard-response,297,524794,0.0-1.0-59.0-0.0-2.0,0,0,64144,,,,,,57.0,,,,,1.0,,,,,,,,,,,,,,,,,,,,,,,,,,,317.5,1.5,,,,,,
298,,feedback,,html-keyboard-response,298,525800,0.0-1.0-59.0-0.0-3.0-0.0,0,0,64144,,,,,,57.0,,,,,1.0,,,,,,,,,,,,,,,,,,,,,,,,,,,318.5,1.0,,,,,,
299,,iti,,html-keyboard-response,299,526807,0.0-1.0-59.0-0.0-5.0,0,0,64144,,,,,,57.0,,,,,1.0,,,,,,,,,,,,,,,,,,,,,,,,,,,319.5,1.0,,,,,,
300,,choice,,html-keyboard-response,300,528183,0.0-1.0-60.0-0.0-0.0,0,0,64144,,1368.0,,,68.0,58.0,58.0,1000.0,2000.0,0.0,1.0,1.0,20-20,1.0,,bongo,bongo,20.0,20.0,bongo4,bongo13,0.0,0.0,26390708.thl.jpg,26388718.thl.jpg,/static/Category_learning/Stimuli/Experimental_stims/bongo/26390708.thl.jpg,/static/Category_learning/Stimuli/Experimental_stims/bongo/26388718.thl.jpg,1.0,bongo,bongo,20.0,20.0,bongo4,bongo13,0.0,0.0,0.0,320.868,1.368,,,,,,
301,,confirmation,,html-keyboard-response,301,528323,0.0-1.0-60.0-0.0-1.0-0.0,0,0,64144,,,,,,58.0,,,,,1.0,,,,,,,,,,,,,,,,,,,,,,,,,,,321.0,0.132,,,,,,
302,,isi,,html-keyboard-response,302,529328,0.0-1.0-60.0-0.0-2.0,0,0,64144,,,,,,58.0,,,,,1.0,,,,,,,,,,,,,,,,,,,,,,,,,,,322.0,1.0,,,,,,
303,,feedback,,html-keyboard-response,303,530333,0.0-1.0-60.0-0.0-3.0-0.0,0,0,64144,,,,,,58.0,,,,,1.0,,,,,,,,,,,,,,,,,,,,,,,,,,,323.0,1.0,,,,,,
304,,iti,,html-keyboard-response,304,532340,0.0-1.0-60.0-0.0-5.0,0,0,64144,,,,,,58.0,,,,,1.0,,,,,,,,,,,,,,,,,,,,,,,,,,,325.0,2.0,,,,,,
305,,choice,,html-keyboard-response,305,533270,0.0-1.0-61.0-0.0-0.0,0,0,64144,,917.0,,,75.0,59.0,59.0,2000.0,2000.0,0.0,1.0,0.0,40-80,,0.0,microscope,yarn,40.0,80.0,microscope12,yarn2,40.0,60.0,usbdigitalmicroscope1_small1.jpg,Aballofyarn66.jpg,/static/Category_learning/Stimuli/Experimental_stims/microscope/usbdigitalmicroscope1_small1.jpg,/static/Category_learning/Stimuli/Experimental_stims/yarn/Aballofyarn66.jpg,0.0,yarn,microscope,80.0,40.0,yarn2,microscope12,60.0,40.0,0.0,325.917,0.917,,,,,,
306,,confirmation,,html-keyboard-response,306,533859,0.0-1.0-61.0-0.0-1.0-0.0,0,0,64144,,,,,,59.0,,,,,1.0,,,,,,,,,,,,,,,,,,,,,,,,,,,326.5,0.583,,,,,,
307,,isi,,html-keyboard-response,307,535865,0.0-1.0-61.0-0.0-2.0,0,0,64144,,,,,,59.0,,,,,1.0,,,,,,,,,,,,,,,,,,,,,,,,,,,328.5,2.0,,,,,,
308,,feedback,,html-keyboard-response,308,536873,0.0-1.0-61.0-0.0-3.0-0.0,0,0,64144,,,,,,59.0,,,,,1.0,,,,,,,,,,,,,,,,,,,,,,,,,,,329.5,1.0,,,,,,
309,,iti,,html-keyboard-response,309,538879,0.0-1.0-61.0-0.0-5.0,0,0,64144,,,,,,59.0,,,,,1.0,,,,,,,,,,,,,,,,,,,,,,,,,,,331.5,2.0,,,,,,
310,,choice,,html-keyboard-response,310,539787,0.0-1.0-62.0-0.0-0.0,0,0,64144,,895.0,,,75.0,60.0,60.0,1000.0,1500.0,0.0,1.0,0.0,60-60,,,nail polish,necklace,60.0,60.0,nail polish2,necklace8,80.0,40.0,froggy_t.jpg,Anecklace20.jpg,/static/Category_learning/Stimuli/Experimental_stims/nail polish/froggy_t.jpg,/static/Category_learning/Stimuli/Experimental_stims/necklace/Anecklace20.jpg,0.0,necklace,nail polish,60.0,60.0,necklace8,nail polish2,40.0,80.0,0.0,332.395,0.895,,,,,,
311,,confirmation,,html-keyboard-response,311,540400,0.0-1.0-62.0-0.0-1.0-0.0,0,0,64144,,,,,,60.0,,,,,1.0,,,,,,,,,,,,,,,,,,,,,,,,,,,333.0,0.605,,,,,,
312,,isi,,html-keyboard-response,312,541406,0.0-1.0-62.0-0.0-2.0,0,0,64144,,,,,,60.0,,,,,1.0,,,,,,,,,,,,,,,,,,,,,,,,,,,334.0,1.0,,,,,,
313,,feedback,,html-keyboard-response,313,542414,0.0-1.0-62.0-0.0-3.0-0.0,0,0,64144,,,,,,60.0,,,,,1.0,,,,,,,,,,,,,,,,,,,,,,,,,,,335.0,1.0,,,,,,
314,,iti,,html-keyboard-response,314,543920,0.0-1.0-62.0-0.0-5.0,0,0,64144,,,,,,60.0,,,,,1.0,,,,,,,,,,,,,,,,,,,,,,,,,,,336.5,1.5,,,,,,
315,,choice,,html-keyboard-response,315,544912,0.0-1.0-63.0-0.0-0.0,0,0,64144,,984.0,,,68.0,61.0,61.0,1000.0,1500.0,0.0,1.0,0.0,60-80,,1.0,stool,small table,80.0,60.0,stool15,small table6,100.0,80.0,ASTOOL.jpg,ATABLE88.jpg,/static/Category_learning/Stimuli/Experimental_stims/stool/ASTOOL.jpg,/static/Category_learning/Stimuli/Experimental_stims/small table/ATABLE88.jpg,1.0,stool,small table,80.0,60.0,stool15,small table6,100.0,80.0,0.0,337.484,0.984,,,,,,
316,,confirmation,,html-keyboard-response,316,545433,0.0-1.0-63.0-0.0-1.0-0.0,0,0,64144,,,,,,61.0,,,,,1.0,,,,,,,,,,,,,,,,,,,,,,,,,,,338.0,0.516,,,,,,
317,,isi,,html-keyboard-response,317,546440,0.0-1.0-63.0-0.0-2.0,0,0,64144,,,,,,61.0,,,,,1.0,,,,,,,,,,,,,,,,,,,,,,,,,,,339.0,1.0,,,,,,
318,,feedback,,html-keyboard-response,318,547448,0.0-1.0-63.0-0.0-3.0-0.0,0,0,64144,,,,,,61.0,,,,,1.0,,,,,,,,,,,,,,,,,,,,,,,,,,,340.0,1.0,,,,,,
319,,iti,,html-keyboard-response,319,548956,0.0-1.0-63.0-0.0-5.0,0,0,64144,,,,,,61.0,,,,,1.0,,,,,,,,,,,,,,,,,,,,,,,,,,,341.5,1.5,,,,,,
320,,choice,,html-keyboard-response,320,550446,0.0-1.0-64.0-0.0-0.0,0,0,64144,,1478.0,,,75.0,62.0,62.0,1000.0,1000.0,0.0,1.0,0.0,40-60,,1.0,seashell,microscope,60.0,40.0,seashell9,microscope11,80.0,20.0,ASEASH5.jpg,konus5604microscope.jpg,/static/Category_learning/Stimuli/Experimental_stims/seashell/ASEASH5.jpg,/static/Category_learning/Stimuli/Experimental_stims/microscope/konus5604microscope.jpg,0.0,microscope,seashell,40.0,60.0,microscope11,seashell9,20.0,80.0,0.0,342.978,1.478,,,,,,
321,,confirmation,,html-keyboard-response,321,550473,0.0-1.0-64.0-0.0-1.0-0.0,0,0,64144,,,,,,62.0,,,,,1.0,,,,,,,,,,,,,,,,,,,,,,,,,,,343.0,0.022,,,,,,
322,,isi,,html-keyboard-response,322,551480,0.0-1.0-64.0-0.0-2.0,0,0,64144,,,,,,62.0,,,,,1.0,,,,,,,,,,,,,,,,,,,,,,,,,,,344.0,1.0,,,,,,
323,,feedback,,html-keyboard-response,323,552488,0.0-1.0-64.0-0.0-3.0-0.0,0,0,64144,,,,,,62.0,,,,,1.0,,,,,,,,,,,,,,,,,,,,,,,,,,,345.0,1.0,,,,,,
324,,iti,,html-keyboard-response,324,553494,0.0-1.0-64.0-0.0-5.0,0,0,64144,,,,,,62.0,,,,,1.0,,,,,,,,,,,,,,,,,,,,,,,,,,,346.0,1.0,,,,,,
325,,choice,,html-keyboard-response,325,554727,0.0-1.0-65.0-0.0-0.0,0,0,64144,,1218.0,,,75.0,63.0,63.0,1000.0,1500.0,0.0,1.0,0.0,20-80,,0.0,bowl,stool,20.0,80.0,bowl3,stool5,40.0,60.0,ABOWL8.jpg,ASTOOL23.jpg,/static/Category_learning/Stimuli/Experimental_stims/bowl/ABOWL8.jpg,/static/Category_learning/Stimuli/Experimental_stims/stool/ASTOOL23.jpg,0.0,stool,bowl,80.0,20.0,stool5,bowl3,60.0,40.0,0.0,347.218,1.218,,,,,,
326,,confirmation,,html-keyboard-response,326,555015,0.0-1.0-65.0-0.0-1.0-0.0,0,0,64144,,,,,,63.0,,,,,1.0,,,,,,,,,,,,,,,,,,,,,,,,,,,347.5,0.282,,,,,,
327,,isi,,html-keyboard-response,327,556022,0.0-1.0-65.0-0.0-2.0,0,0,64144,,,,,,63.0,,,,,1.0,,,,,,,,,,,,,,,,,,,,,,,,,,,348.5,1.0,,,,,,
328,,feedback,,html-keyboard-response,328,557028,0.0-1.0-65.0-0.0-3.0-0.0,0,0,64144,,,,,,63.0,,,,,1.0,,,,,,,,,,,,,,,,,,,,,,,,,,,349.5,1.0,,,,,,
329,,iti,,html-keyboard-response,329,558535,0.0-1.0-65.0-0.0-5.0,0,0,64144,,,,,,63.0,,,,,1.0,,,,,,,,,,,,,,,,,,,,,,,,,,,351.0,1.5,,,,,,
330,,block_over,,html-keyboard-response,330,573352,0.0-1.0-65.0-0.0-7.0-0.0,0,0,64144,,14800.0,,,68.0,63.0,,,,,,,,,,,,,,,,,,,,,,,,,,,,,,,,,,,,,,,
331,,start_run,,html-keyboard-response,331,575043,0.0-1.0-65.0-0.0-7.0-1.0,0,0,64144,,1687.0,,,84.0,,,,,,,,,,,,,,,,,,,,,,,,,,,,,,,,,,,,,,,,
332,,choice,,html-keyboard-response,332,575881,0.0-1.0-66.0-0.0-0.0,0,0,64144,,830.0,,,75.0,64.0,65.0,1000.0,1000.0,0.0,2.0,0.0,40-80,,1.0,watch,makeup compact,80.0,40.0,watch1,makeup compact9,80.0,40.0,B000B5K8XI.01-A2E7J74KJYV9ZH._AA280_SCLZZZZZZZ_V53007008_.jpg,b_102019.jpg,/static/Category_learning/Stimuli/Experimental_stims/watch/B000B5K8XI.01-A2E7J74KJYV9ZH._AA280_SCLZZZZZZZ_V53007008_.jpg,/static/Category_learning/Stimuli/Experimental_stims/makeup compact/b_102019.jpg,0.0,makeup compact,watch,40.0,80.0,makeup compact9,watch1,40.0,80.0,0.0,0.83,0.83,,,,,,
333,,confirmation,,html-keyboard-response,333,576557,0.0-1.0-66.0-0.0-1.0-0.0,0,0,64144,,,,,,64.0,,,,,2.0,,,,,,,,,,,,,,,,,,,,,,,,,,,1.5,0.67,,,,,,
334,,isi,,html-keyboard-response,334,577564,0.0-1.0-66.0-0.0-2.0,0,0,64144,,,,,,64.0,,,,,2.0,,,,,,,,,,,,,,,,,,,,,,,,,,,2.5,1.0,,,,,,
335,,feedback,,html-keyboard-response,335,578572,0.0-1.0-66.0-0.0-3.0-0.0,0,0,64144,,,,,,64.0,,,,,2.0,,,,,,,,,,,,,,,,,,,,,,,,,,,3.5,1.0,,,,,,
336,,iti,,html-keyboard-response,336,579577,0.0-1.0-66.0-0.0-5.0,0,0,64144,,,,,,64.0,,,,,2.0,,,,,,,,,,,,,,,,,,,,,,,,,,,4.5,1.0,,,,,,
337,,choice,,html-keyboard-response,337,580451,0.0-1.0-67.0-0.0-0.0,0,0,64144,,861.0,,,75.0,65.0,66.0,3500.0,2000.0,0.0,2.0,0.0,20-80,,1.0,vase,bench,80.0,20.0,vase12,bench13,100.0,40.0,Abluevase2.jpg,ABROWNBE4.jpg,/static/Category_learning/Stimuli/Experimental_stims/vase/Abluevase2.jpg,/static/Category_learning/Stimuli/Experimental_stims/bench/ABROWNBE4.jpg,0.0,bench,vase,20.0,80.0,bench13,vase12,40.0,100.0,0.0,5.361,0.861,,,,,,
338,,confirmation,,html-keyboard-response,338,581099,0.0-1.0-67.0-0.0-1.0-0.0,0,0,64144,,,,,,65.0,,,,,2.0,,,,,,,,,,,,,,,,,,,,,,,,,,,6.0,0.639,,,,,,
339,,isi,,html-keyboard-response,339,584604,0.0-1.0-67.0-0.0-2.0,0,0,64144,,,,,,65.0,,,,,2.0,,,,,,,,,,,,,,,,,,,,,,,,,,,9.5,3.5,,,,,,
340,,feedback,,html-keyboard-response,340,585609,0.0-1.0-67.0-0.0-3.0-0.0,0,0,64144,,,,,,65.0,,,,,2.0,,,,,,,,,,,,,,,,,,,,,,,,,,,10.5,1.0,,,,,,
341,,iti,,html-keyboard-response,341,587617,0.0-1.0-67.0-0.0-5.0,0,0,64144,,,,,,65.0,,,,,2.0,,,,,,,,,,,,,,,,,,,,,,,,,,,12.5,2.0,,,,,,
342,,choice,,html-keyboard-response,342,588547,0.0-1.0-68.0-0.0-0.0,0,0,64144,,917.0,,,75.0,66.0,67.0,1000.0,1000.0,0.0,2.0,0.0,20-80,,0.0,fan,trumpet,20.0,80.0,fan2,trumpet12,40.0,80.0,507349_sk_lg.jpg,hornabariton.jpg,/static/Category_learning/Stimuli/Experimental_stims/fan/507349_sk_lg.jpg,/static/Category_learning/Stimuli/Experimental_stims/trumpet/hornabariton.jpg,0.0,trumpet,fan,80.0,20.0,trumpet12,fan2,80.0,40.0,0.0,13.417,0.917,,,,,,
343,,confirmation,,html-keyboard-response,343,589135,0.0-1.0-68.0-0.0-1.0-0.0,0,0,64144,,,,,,66.0,,,,,2.0,,,,,,,,,,,,,,,,,,,,,,,,,,,14.0,0.583,,,,,,
344,,isi,,html-keyboard-response,344,590141,0.0-1.0-68.0-0.0-2.0,0,0,64144,,,,,,66.0,,,,,2.0,,,,,,,,,,,,,,,,,,,,,,,,,,,15.0,1.0,,,,,,
345,,feedback,,html-keyboard-response,345,591147,0.0-1.0-68.0-0.0-3.0-0.0,0,0,64144,,,,,,66.0,,,,,2.0,,,,,,,,,,,,,,,,,,,,,,,,,,,16.0,1.0,,,,,,
346,,iti,,html-keyboard-response,346,592153,0.0-1.0-68.0-0.0-5.0,0,0,64144,,,,,,66.0,,,,,2.0,,,,,,,,,,,,,,,,,,,,,,,,,,,17.0,1.0,,,,,,
347,,choice,,html-keyboard-response,347,593033,0.0-1.0-69.0-0.0-0.0,0,0,64144,,867.0,,,68.0,67.0,68.0,2000.0,1000.0,0.0,2.0,0.0,60-60,,,pen,poker card,60.0,60.0,pen4,poker card9,80.0,80.0,Montblanc_Greta_Garbo_BP copy.jpg,9817230.thl.jpg,/static/Category_learning/Stimuli/Experimental_stims/pen/Montblanc_Greta_Garbo_BP copy.jpg,/static/Category_learning/Stimuli/Experimental_stims/poker card/9817230.thl.jpg,1.0,pen,poker card,60.0,60.0,pen4,poker card9,80.0,80.0,0.0,17.867,0.867,,,,,,
348,,confirmation,,html-keyboard-response,348,593674,0.0-1.0-69.0-0.0-1.0-0.0,0,0,64144,,,,,,67.0,,,,,2.0,,,,,,,,,,,,,,,,,,,,,,,,,,,18.5,0.633,,,,,,
349,,isi,,html-keyboard-response,349,595681,0.0-1.0-69.0-0.0-2.0,0,0,64144,,,,,,67.0,,,,,2.0,,,,,,,,,,,,,,,,,,,,,,,,,,,20.5,2.0,,,,,,
350,,feedback,,html-keyboard-response,350,596690,0.0-1.0-69.0-0.0-3.0-0.0,0,0,64144,,,,,,67.0,,,,,2.0,,,,,,,,,,,,,,,,,,,,,,,,,,,21.5,1.0,,,,,,
351,,iti,,html-keyboard-response,351,597696,0.0-1.0-69.0-0.0-5.0,0,0,64144,,,,,,67.0,,,,,2.0,,,,,,,,,,,,,,,,,,,,,,,,,,,22.5,1.0,,,,,,
352,,choice,,html-keyboard-response,352,599078,0.0-1.0-70.0-0.0-0.0,0,0,64144,,1375.0,,,75.0,68.0,69.0,1000.0,1000.0,0.0,2.0,0.0,20-20,,,baby carriage,fan,20.0,20.0,baby carriage9,fan11,0.0,0.0,Antique baby Carriage 7.jpg,n_sf.jpg,/static/Category_learning/Stimuli/Experimental_stims/baby carriage/Antique baby Carriage 7.jpg,/static/Category_learning/Stimuli/Experimental_stims/fan/n_sf.jpg,0.0,fan,baby carriage,20.0,20.0,fan11,baby carriage9,0.0,0.0,0.0,23.875,1.375,,,,,,
353,,confirmation,,html-keyboard-response,353,599209,0.0-1.0-70.0-0.0-1.0-0.0,0,0,64144,,,,,,68.0,,,,,2.0,,,,,,,,,,,,,,,,,,,,,,,,,,,24.0,0.125,,,,,,
354,,isi,,html-keyboard-response,354,600215,0.0-1.0-70.0-0.0-2.0,0,0,64144,,,,,,68.0,,,,,2.0,,,,,,,,,,,,,,,,,,,,,,,,,,,25.0,1.0,,,,,,
355,,feedback,,html-keyboard-response,355,601221,0.0-1.0-70.0-0.0-3.0-0.0,0,0,64144,,,,,,68.0,,,,,2.0,,,,,,,,,,,,,,,,,,,,,,,,,,,26.0,1.0,,,,,,
356,,iti,,html-keyboard-response,356,602226,0.0-1.0-70.0-0.0-5.0,0,0,64144,,,,,,68.0,,,,,2.0,,,,,,,,,,,,,,,,,,,,,,,,,,,27.0,1.0,,,,,,
357,,choice,,html-keyboard-response,357,603708,0.0-1.0-71.0-0.0-0.0,0,0,64144,,1475.0,,,68.0,69.0,70.0,1500.0,1000.0,0.0,2.0,0.0,20-80,,1.0,stool,dresser,80.0,20.0,stool2,dresser1,60.0,0.0,ASTOOL46.jpg,ADRESSE52.jpg,/static/Category_learning/Stimuli/Experimental_stims/stool/ASTOOL46.jpg,/static/Category_learning/Stimuli/Experimental_stims/dresser/ADRESSE52.jpg,1.0,stool,dresser,80.0,20.0,stool2,dresser1,60.0,0.0,0.0,28.475,1.475,,,,,,
358,,confirmation,,html-keyboard-response,358,603741,0.0-1.0-71.0-0.0-1.0-0.0,0,0,64144,,,,,,69.0,,,,,2.0,,,,,,,,,,,,,,,,,,,,,,,,,,,28.5,0.025,,,,,,
359,,isi,,html-keyboard-response,359,605248,0.0-1.0-71.0-0.0-2.0,0,0,64144,,,,,,69.0,,,,,2.0,,,,,,,,,,,,,,,,,,,,,,,,,,,30.0,1.5,,,,,,
360,,feedback,,html-keyboard-response,360,606254,0.0-1.0-71.0-0.0-3.0-0.0,0,0,64144,,,,,,69.0,,,,,2.0,,,,,,,,,,,,,,,,,,,,,,,,,,,31.0,1.0,,,,,,
361,,iti,,html-keyboard-response,361,607260,0.0-1.0-71.0-0.0-5.0,0,0,64144,,,,,,69.0,,,,,2.0,,,,,,,,,,,,,,,,,,,,,,,,,,,32.0,1.0,,,,,,
362,,choice,,html-keyboard-response,362,608190,0.0-1.0-72.0-0.0-0.0,0,0,64144,,923.0,,,75.0,70.0,71.0,3500.0,2000.0,0.0,2.0,0.0,20-80,,0.0,desk,stool,20.0,80.0,desk4,stool11,40.0,60.0,AbbeyMiniRadialBIG(1).jpg,ASTOOL28.jpg,/static/Category_learning/Stimuli/Experimental_stims/desk/AbbeyMiniRadialBIG(1).jpg,/static/Category_learning/Stimuli/Experimental_stims/stool/ASTOOL28.jpg,0.0,stool,desk,80.0,20.0,stool11,desk4,60.0,40.0,0.0,32.923,0.923,,,,,,
363,,confirmation,,html-keyboard-response,363,608773,0.0-1.0-72.0-0.0-1.0-0.0,0,0,64144,,,,,,70.0,,,,,2.0,,,,,,,,,,,,,,,,,,,,,,,,,,,33.5,0.577,,,,,,
364,,isi,,html-keyboard-response,364,612279,0.0-1.0-72.0-0.0-2.0,0,0,64144,,,,,,70.0,,,,,2.0,,,,,,,,,,,,,,,,,,,,,,,,,,,37.0,3.5,,,,,,
365,,feedback,,html-keyboard-response,365,613287,0.0-1.0-72.0-0.0-3.0-0.0,0,0,64144,,,,,,70.0,,,,,2.0,,,,,,,,,,,,,,,,,,,,,,,,,,,38.0,1.0,,,,,,
366,,iti,,html-keyboard-response,366,615291,0.0-1.0-72.0-0.0-5.0,0,0,64144,,,,,,70.0,,,,,2.0,,,,,,,,,,,,,,,,,,,,,,,,,,,40.0,2.0,,,,,,
367,,choice,,html-keyboard-response,367,616770,0.0-1.0-73.0-0.0-0.0,0,0,64144,,1472.0,,,75.0,71.0,72.0,2000.0,1500.0,0.0,2.0,0.0,40-60,,0.0,license plate,poker card,40.0,60.0,license plate1,poker card2,40.0,60.0,il-423-3784.jpg,22864716.thl.jpg,/static/Category_learning/Stimuli/Experimental_stims/license plate/il-423-3784.jpg,/static/Category_learning/Stimuli/Experimental_stims/poker card/22864716.thl.jpg,0.0,poker card,license plate,60.0,40.0,poker card2,license plate1,60.0,40.0,0.0,41.472,1.472,,,,,,
368,,confirmation,,html-keyboard-response,368,616804,0.0-1.0-73.0-0.0-1.0-0.0,0,0,64144,,,,,,71.0,,,,,2.0,,,,,,,,,,,,,,,,,,,,,,,,,,,41.5,0.028,,,,,,
369,,isi,,html-keyboard-response,369,618810,0.0-1.0-73.0-0.0-2.0,0,0,64144,,,,,,71.0,,,,,2.0,,,,,,,,,,,,,,,,,,,,,,,,,,,43.5,2.0,,,,,,
370,,feedback,,html-keyboard-response,370,619816,0.0-1.0-73.0-0.0-3.0-0.0,0,0,64144,,,,,,71.0,,,,,2.0,,,,,,,,,,,,,,,,,,,,,,,,,,,44.5,1.0,,,,,,
371,,iti,,html-keyboard-response,371,621322,0.0-1.0-73.0-0.0-5.0,0,0,64144,,,,,,71.0,,,,,2.0,,,,,,,,,,,,,,,,,,,,,,,,,,,46.0,1.5,,,,,,
372,,choice,,html-keyboard-response,372,622800,0.0-1.0-74.0-0.0-0.0,0,0,64144,,1465.0,,,75.0,72.0,73.0,1500.0,1500.0,0.0,2.0,1.0,40-40,1.0,,makeup compact,makeup compact,40.0,40.0,makeup compact9,makeup compact5,40.0,60.0,b_102019.jpg,P109965_hero.jpg,/static/Category_learning/Stimuli/Experimental_stims/makeup compact/b_102019.jpg,/static/Category_learning/Stimuli/Experimental_stims/makeup compact/P109965_hero.jpg,0.0,makeup compact,makeup compact,40.0,40.0,makeup compact5,makeup compact9,60.0,40.0,0.0,47.465,1.465,,,,,,
373,,confirmation,,html-keyboard-response,373,622841,0.0-1.0-74.0-0.0-1.0-0.0,0,0,64144,,,,,,72.0,,,,,2.0,,,,,,,,,,,,,,,,,,,,,,,,,,,47.5,0.035,,,,,,
374,,isi,,html-keyboard-response,374,624348,0.0-1.0-74.0-0.0-2.0,0,0,64144,,,,,,72.0,,,,,2.0,,,,,,,,,,,,,,,,,,,,,,,,,,,49.0,1.5,,,,,,
375,,feedback,,html-keyboard-response,375,625358,0.0-1.0-74.0-0.0-3.0-0.0,0,0,64144,,,,,,72.0,,,,,2.0,,,,,,,,,,,,,,,,,,,,,,,,,,,50.0,1.0,,,,,,
376,,iti,,html-keyboard-response,376,626864,0.0-1.0-74.0-0.0-5.0,0,0,64144,,,,,,72.0,,,,,2.0,,,,,,,,,,,,,,,,,,,,,,,,,,,51.5,1.5,,,,,,
377,,choice,,html-keyboard-response,377,627860,0.0-1.0-75.0-0.0-0.0,0,0,64144,,988.0,,,75.0,73.0,74.0,1000.0,2000.0,0.0,2.0,0.0,20-60,,0.0,flashlight,poker card,20.0,60.0,flashlight8,poker card12,40.0,80.0,Streamlight-Stinger-Rechargeable-Flashlight-with-Charger-Black-75014-B00008BFSI-L.jpg,22865676.thl.jpg,/static/Category_learning/Stimuli/Experimental_stims/flashlight/Streamlight-Stinger-Rechargeable-Flashlight-with-Charger-Black-75014-B00008BFSI-L.jpg,/static/Category_learning/Stimuli/Experimental_stims/poker card/22865676.thl.jpg,0.0,poker card,flashlight,60.0,20.0,poker card12,flashlight8,80.0,40.0,0.0,52.488,0.988,,,,,,
378,,confirmation,,html-keyboard-response,378,628377,0.0-1.0-75.0-0.0-1.0-0.0,0,0,64144,,,,,,73.0,,,,,2.0,,,,,,,,,,,,,,,,,,,,,,,,,,,53.0,0.512,,,,,,
379,,isi,,html-keyboard-response,379,629384,0.0-1.0-75.0-0.0-2.0,0,0,64144,,,,,,73.0,,,,,2.0,,,,,,,,,,,,,,,,,,,,,,,,,,,54.0,1.0,,,,,,
380,,feedback,,html-keyboard-response,380,630391,0.0-1.0-75.0-0.0-3.0-0.0,0,0,64144,,,,,,73.0,,,,,2.0,,,,,,,,,,,,,,,,,,,,,,,,,,,55.0,1.0,,,,,,
381,,iti,,html-keyboard-response,381,632398,0.0-1.0-75.0-0.0-5.0,0,0,64144,,,,,,73.0,,,,,2.0,,,,,,,,,,,,,,,,,,,,,,,,,,,57.0,2.0,,,,,,
382,,choice,,html-keyboard-response,382,633291,0.0-1.0-76.0-0.0-0.0,0,0,64144,,888.0,,,75.0,74.0,75.0,1500.0,1000.0,0.0,2.0,0.0,20-80,,0.0,bongo,stool,20.0,80.0,bongo3,stool4,20.0,60.0,26390697.thl.jpg,ASTOOL22.jpg,/static/Category_learning/Stimuli/Experimental_stims/bongo/26390697.thl.jpg,/static/Category_learning/Stimuli/Experimental_stims/stool/ASTOOL22.jpg,0.0,stool,bongo,80.0,20.0,stool4,bongo3,60.0,20.0,0.0,57.888,0.888,,,,,,
383,,confirmation,,html-keyboard-response,383,633909,0.0-1.0-76.0-0.0-1.0-0.0,0,0,64144,,,,,,74.0,,,,,2.0,,,,,,,,,,,,,,,,,,,,,,,,,,,58.5,0.612,,,,,,
384,,isi,,html-keyboard-response,384,635415,0.0-1.0-76.0-0.0-2.0,0,0,64144,,,,,,74.0,,,,,2.0,,,,,,,,,,,,,,,,,,,,,,,,,,,60.0,1.5,,,,,,
385,,feedback,,html-keyboard-response,385,636422,0.0-1.0-76.0-0.0-3.0-0.0,0,0,64144,,,,,,74.0,,,,,2.0,,,,,,,,,,,,,,,,,,,,,,,,,,,61.0,1.0,,,,,,
386,,iti,,html-keyboard-response,386,637428,0.0-1.0-76.0-0.0-5.0,0,0,64144,,,,,,74.0,,,,,2.0,,,,,,,,,,,,,,,,,,,,,,,,,,,62.0,1.0,,,,,,
387,,choice,,html-keyboard-response,387,638939,0.0-1.0-77.0-0.0-0.0,0,0,64144,,,,,,75.0,76.0,3000.0,2000.0,0.0,2.0,0.0,40-40,,,makeup compact,motorcycle,40.0,40.0,makeup compact6,motorcycle8,20.0,20.0,P0754_hero.jpg,Motorcycle903425j2.jpg,/static/Category_learning/Stimuli/Experimental_stims/makeup compact/P0754_hero.jpg,/static/Category_learning/Stimuli/Experimental_stims/motorcycle/Motorcycle903425j2.jpg,,,,,,,,,,1.0,63.5,1.5,,,,,,
388,,isi,,html-keyboard-response,388,641944,0.0-1.0-77.0-0.0-2.0,0,0,64144,,,,,,75.0,,,,,2.0,,,,,,,,,,,,,,,,,,,,,,,,,,,66.5,3.0,,,,,,
389,,no_response,,html-keyboard-response,389,642949,0.0-1.0-77.0-0.0-4.0-0.0,0,0,64144,,,,,,75.0,,,,,2.0,,,,,,,,,,,,,,,,,,,,,,,,,,,67.5,1.0,,,,,,
390,,iti,,html-keyboard-response,390,644981,0.0-1.0-77.0-0.0-5.0,0,0,64144,,,,,,75.0,,,,,2.0,,,,,,,,,,,,,,,,,,,,,,,,,,,69.5,2.0,,,,,,
391,,choice,,html-keyboard-response,391,645590,0.0-1.0-77.0-0.1-0.1,0,0,64144,,601.0,,,68.0,75.0,76.0,3000.0,2000.0,0.0,2.0,0.0,40-40,,,makeup compact,motorcycle,40.0,40.0,makeup compact6,motorcycle8,20.0,20.0,P0754_hero.jpg,Motorcycle903425j2.jpg,/static/Category_learning/Stimuli/Experimental_stims/makeup compact/P0754_hero.jpg,/static/Category_learning/Stimuli/Experimental_stims/motorcycle/Motorcycle903425j2.jpg,1.0,makeup compact,motorcycle,40.0,40.0,makeup compact6,motorcycle8,20.0,20.0,0.0,70.101,0.601,,,,,,
392,,confirmation,,html-keyboard-response,392,646496,0.0-1.0-77.0-0.1-1.1-0.1,0,0,64144,,,,,,75.0,,,,,2.0,,,,,,,,,,,,,,,,,,,,,,,,,,,71.0,0.899,,,,,,
393,,isi,,html-keyboard-response,393,648002,0.0-1.0-77.0-0.1-2.1,0,0,64144,,,,,,75.0,,,,,2.0,,,,,,,,,,,,,,,,,,,,,,,,,,,72.5,1.5,,,,,,
394,,feedback,,html-keyboard-response,394,649008,0.0-1.0-77.0-0.1-3.1-0.1,0,0,64144,,,,,,75.0,,,,,2.0,,,,,,,,,,,,,,,,,,,,,,,,,,,73.5,1.0,,,,,,
395,,iti,,html-keyboard-response,395,652514,0.0-1.0-77.0-0.1-5.1,0,0,64144,,,,,,75.0,,,,,2.0,,,,,,,,,,,,,,,,,,,,,,,,,,,77.0,3.5,,,,,,
396,,choice,,html-keyboard-response,396,653322,0.0-1.0-78.0-0.0-0.0,0,0,64144,,798.0,,,75.0,76.0,77.0,3000.0,1000.0,0.0,2.0,1.0,40-40,1.0,,frame,frame,40.0,40.0,frame11,frame3,60.0,40.0,AFRAME139.jpg,AFRAME132.jpg,/static/Category_learning/Stimuli/Experimental_stims/frame/AFRAME139.jpg,/static/Category_learning/Stimuli/Experimental_stims/frame/AFRAME132.jpg,0.0,frame,frame,40.0,40.0,frame3,frame11,40.0,60.0,0.0,77.798,0.798,,,,,,
397,,confirmation,,html-keyboard-response,397,654031,0.0-1.0-78.0-0.0-1.0-0.0,0,0,64144,,,,,,76.0,,,,,2.0,,,,,,,,,,,,,,,,,,,,,,,,,,,78.5,0.702,,,,,,
398,,isi,,html-keyboard-response,398,657038,0.0-1.0-78.0-0.0-2.0,0,0,64144,,,,,,76.0,,,,,2.0,,,,,,,,,,,,,,,,,,,,,,,,,,,81.5,3.0,,,,,,
399,,feedback,,html-keyboard-response,399,658045,0.0-1.0-78.0-0.0-3.0-0.0,0,0,64144,,,,,,76.0,,,,,2.0,,,,,,,,,,,,,,,,,,,,,,,,,,,82.5,1.0,,,,,,
400,,iti,,html-keyboard-response,400,659052,0.0-1.0-78.0-0.0-5.0,0,0,64144,,,,,,76.0,,,,,2.0,,,,,,,,,,,,,,,,,,,,,,,,,,,83.5,1.0,,,,,,
401,,choice,,html-keyboard-response,401,659945,0.0-1.0-79.0-0.0-0.0,0,0,64144,,885.0,,,75.0,77.0,78.0,1500.0,1000.0,0.0,2.0,0.0,60-60,,,patio lounge chair,pen,60.0,60.0,patio lounge chair9,pen6,60.0,40.0,43-3.jpg,executive_pen2.jpg,/static/Category_learning/Stimuli/Experimental_stims/patio lounge chair/43-3.jpg,/static/Category_learning/Stimuli/Experimental_stims/pen/executive_pen2.jpg,0.0,pen,patio lounge chair,60.0,60.0,pen6,patio lounge chair9,40.0,60.0,0.0,84.385,0.885,,,,,,
402,,confirmation,,html-keyboard-response,402,660568,0.0-1.0-79.0-0.0-1.0-0.0,0,0,64144,,,,,,77.0,,,,,2.0,,,,,,,,,,,,,,,,,,,,,,,,,,,85.0,0.615,,,,,,
403,,isi,,html-keyboard-response,403,662074,0.0-1.0-79.0-0.0-2.0,0,0,64144,,,,,,77.0,,,,,2.0,,,,,,,,,,,,,,,,,,,,,,,,,,,86.5,1.5,,,,,,
404,,feedback,,html-keyboard-response,404,663080,0.0-1.0-79.0-0.0-3.0-0.0,0,0,64144,,,,,,77.0,,,,,2.0,,,,,,,,,,,,,,,,,,,,,,,,,,,87.5,1.0,,,,,,
405,,iti,,html-keyboard-response,405,664085,0.0-1.0-79.0-0.0-5.0,0,0,64144,,,,,,77.0,,,,,2.0,,,,,,,,,,,,,,,,,,,,,,,,,,,88.5,1.0,,,,,,
406,,choice,,html-keyboard-response,406,664768,0.0-1.0-80.0-0.0-0.0,0,0,64144,,675.0,,,68.0,78.0,79.0,1000.0,2000.0,0.0,2.0,1.0,60-60,1.0,,poker card,poker card,60.0,60.0,poker card12,poker card2,80.0,60.0,22865676.thl.jpg,22864716.thl.jpg,/static/Category_learning/Stimuli/Experimental_stims/poker card/22865676.thl.jpg,/static/Category_learning/Stimuli/Experimental_stims/poker card/22864716.thl.jpg,1.0,poker card,poker card,60.0,60.0,poker card12,poker card2,80.0,60.0,0.0,89.175,0.675,,,,,,
407,,confirmation,,html-keyboard-response,407,665602,0.0-1.0-80.0-0.0-1.0-0.0,0,0,64144,,,,,,78.0,,,,,2.0,,,,,,,,,,,,,,,,,,,,,,,,,,,90.0,0.825,,,,,,
408,,isi,,html-keyboard-response,408,666608,0.0-1.0-80.0-0.0-2.0,0,0,64144,,,,,,78.0,,,,,2.0,,,,,,,,,,,,,,,,,,,,,,,,,,,91.0,1.0,,,,,,
409,,feedback,,html-keyboard-response,409,667613,0.0-1.0-80.0-0.0-3.0-0.0,0,0,64144,,,,,,78.0,,,,,2.0,,,,,,,,,,,,,,,,,,,,,,,,,,,92.0,1.0,,,,,,
410,,iti,,html-keyboard-response,410,669621,0.0-1.0-80.0-0.0-5.0,0,0,64144,,,,,,78.0,,,,,2.0,,,,,,,,,,,,,,,,,,,,,,,,,,,94.0,2.0,,,,,,
411,,choice,,html-keyboard-response,411,670560,0.0-1.0-81.0-0.0-0.0,0,0,64144,,932.0,,,75.0,79.0,80.0,2000.0,1000.0,0.0,2.0,0.0,20-60,,0.0,bowl,necklace,20.0,60.0,bowl7,necklace4,20.0,40.0,Abowl54.jpg,emerald_diamond_necklace.jpg,/static/Category_learning/Stimuli/Experimental_stims/bowl/Abowl54.jpg,/static/Category_learning/Stimuli/Experimental_stims/necklace/emerald_diamond_necklace.jpg,0.0,necklace,bowl,60.0,20.0,necklace4,bowl7,40.0,20.0,0.0,94.932,0.932,,,,,,
412,,confirmation,,html-keyboard-response,412,671135,0.0-1.0-81.0-0.0-1.0-0.0,0,0,64144,,,,,,79.0,,,,,2.0,,,,,,,,,,,,,,,,,,,,,,,,,,,95.5,0.568,,,,,,
413,,isi,,html-keyboard-response,413,673140,0.0-1.0-81.0-0.0-2.0,0,0,64144,,,,,,79.0,,,,,2.0,,,,,,,,,,,,,,,,,,,,,,,,,,,97.5,2.0,,,,,,
414,,feedback,,html-keyboard-response,414,674148,0.0-1.0-81.0-0.0-3.0-0.0,0,0,64144,,,,,,79.0,,,,,2.0,,,,,,,,,,,,,,,,,,,,,,,,,,,98.5,1.0,,,,,,
415,,iti,,html-keyboard-response,415,675154,0.0-1.0-81.0-0.0-5.0,0,0,64144,,,,,,79.0,,,,,2.0,,,,,,,,,,,,,,,,,,,,,,,,,,,99.5,1.0,,,,,,
416,,choice,,html-keyboard-response,416,675922,0.0-1.0-82.0-0.0-0.0,0,0,64144,,759.0,,,68.0,80.0,81.0,1500.0,1000.0,0.0,2.0,0.0,20-80,,1.0,vase,bongo,80.0,20.0,vase11,bongo12,100.0,40.0,Ethnic_Ceramic_Vase.jpg,26686609.thl.jpg,/static/Category_learning/Stimuli/Experimental_stims/vase/Ethnic_Ceramic_Vase.jpg,/static/Category_learning/Stimuli/Experimental_stims/bongo/26686609.thl.jpg,1.0,vase,bongo,80.0,20.0,vase11,bongo12,100.0,40.0,0.0,100.259,0.759,,,,,,
417,,confirmation,,html-keyboard-response,417,676668,0.0-1.0-82.0-0.0-1.0-0.0,0,0,64144,,,,,,80.0,,,,,2.0,,,,,,,,,,,,,,,,,,,,,,,,,,,101.0,0.741,,,,,,
418,,isi,,html-keyboard-response,418,678174,0.0-1.0-82.0-0.0-2.0,0,0,64144,,,,,,80.0,,,,,2.0,,,,,,,,,,,,,,,,,,,,,,,,,,,102.5,1.5,,,,,,
419,,feedback,,html-keyboard-response,419,679179,0.0-1.0-82.0-0.0-3.0-0.0,0,0,64144,,,,,,80.0,,,,,2.0,,,,,,,,,,,,,,,,,,,,,,,,,,,103.5,1.0,,,,,,
420,,iti,,html-keyboard-response,420,680185,0.0-1.0-82.0-0.0-5.0,0,0,64144,,,,,,80.0,,,,,2.0,,,,,,,,,,,,,,,,,,,,,,,,,,,104.5,1.0,,,,,,
421,,choice,,html-keyboard-response,421,681190,0.0-1.0-83.0-0.0-0.0,0,0,64144,,998.0,,,68.0,81.0,82.0,1000.0,1500.0,0.0,2.0,0.0,40-80,,1.0,yarn,makeup compact,80.0,40.0,yarn10,makeup compact7,60.0,20.0,revelation-yarn.jpg,P187133_hero.jpg,/static/Category_learning/Stimuli/Experimental_stims/yarn/revelation-yarn.jpg,/static/Category_learning/Stimuli/Experimental_stims/makeup compact/P187133_hero.jpg,1.0,yarn,makeup compact,80.0,40.0,yarn10,makeup compact7,60.0,20.0,0.0,105.498,0.998,,,,,,
422,,confirmation,,html-keyboard-response,422,681698,0.0-1.0-83.0-0.0-1.0-0.0,0,0,64144,,,,,,81.0,,,,,2.0,,,,,,,,,,,,,,,,,,,,,,,,,,,106.0,0.502,,,,,,
423,,isi,,html-keyboard-response,423,682706,0.0-1.0-83.0-0.0-2.0,0,0,64144,,,,,,81.0,,,,,2.0,,,,,,,,,,,,,,,,,,,,,,,,,,,107.0,1.0,,,,,,
424,,feedback,,html-keyboard-response,424,683712,0.0-1.0-83.0-0.0-3.0-0.0,0,0,64144,,,,,,81.0,,,,,2.0,,,,,,,,,,,,,,,,,,,,,,,,,,,108.0,1.0,,,,,,
425,,iti,,html-keyboard-response,425,685218,0.0-1.0-83.0-0.0-5.0,0,0,64144,,,,,,81.0,,,,,2.0,,,,,,,,,,,,,,,,,,,,,,,,,,,109.5,1.5,,,,,,
426,,choice,,html-keyboard-response,426,686097,0.0-1.0-84.0-0.0-0.0,0,0,64144,,871.0,,,68.0,82.0,83.0,1000.0,2000.0,0.0,2.0,1.0,60-60,1.0,,pen,pen,60.0,60.0,pen6,pen4,40.0,80.0,executive_pen2.jpg,Montblanc_Greta_Garbo_BP copy.jpg,/static/Category_learning/Stimuli/Experimental_stims/pen/executive_pen2.jpg,/static/Category_learning/Stimuli/Experimental_stims/pen/Montblanc_Greta_Garbo_BP copy.jpg,1.0,pen,pen,60.0,60.0,pen6,pen4,40.0,80.0,0.0,110.371,0.871,,,,,,
427,,confirmation,,html-keyboard-response,427,686732,0.0-1.0-84.0-0.0-1.0-0.0,0,0,64144,,,,,,82.0,,,,,2.0,,,,,,,,,,,,,,,,,,,,,,,,,,,111.0,0.629,,,,,,
428,,isi,,html-keyboard-response,428,687739,0.0-1.0-84.0-0.0-2.0,0,0,64144,,,,,,82.0,,,,,2.0,,,,,,,,,,,,,,,,,,,,,,,,,,,112.0,1.0,,,,,,
429,,feedback,,html-keyboard-response,429,688748,0.0-1.0-84.0-0.0-3.0-0.0,0,0,64144,,,,,,82.0,,,,,2.0,,,,,,,,,,,,,,,,,,,,,,,,,,,113.0,1.0,,,,,,
430,,iti,,html-keyboard-response,430,690753,0.0-1.0-84.0-0.0-5.0,0,0,64144,,,,,,82.0,,,,,2.0,,,,,,,,,,,,,,,,,,,,,,,,,,,115.0,2.0,,,,,,
431,,choice,,html-keyboard-response,431,691637,0.0-1.0-85.0-0.0-0.0,0,0,64144,,877.0,,,75.0,83.0,84.0,1500.0,1000.0,0.0,2.0,0.0,20-60,,1.0,sofa,door knob,60.0,20.0,sofa14,door knob3,40.0,40.0,HENRY-Sofa-falg8068-05-72X34X34.jpg,020f7ec6-df08-40fa-b3a5-0dcfb762f085_4.jpg,/static/Category_learning/Stimuli/Experimental_stims/sofa/HENRY-Sofa-falg8068-05-72X34X34.jpg,/static/Category_learning/Stimuli/Experimental_stims/door knob/020f7ec6-df08-40fa-b3a5-0dcfb762f085_4.jpg,0.0,door knob,sofa,20.0,60.0,door knob3,sofa14,40.0,40.0,0.0,115.877,0.877,,,,,,
432,,confirmation,,html-keyboard-response,432,692268,0.0-1.0-85.0-0.0-1.0-0.0,0,0,64144,,,,,,83.0,,,,,2.0,,,,,,,,,,,,,,,,,,,,,,,,,,,116.5,0.623,,,,,,
433,,isi,,html-keyboard-response,433,693773,0.0-1.0-85.0-0.0-2.0,0,0,64144,,,,,,83.0,,,,,2.0,,,,,,,,,,,,,,,,,,,,,,,,,,,118.0,1.5,,,,,,
434,,feedback,,html-keyboard-response,434,694781,0.0-1.0-85.0-0.0-3.0-0.0,0,0,64144,,,,,,83.0,,,,,2.0,,,,,,,,,,,,,,,,,,,,,,,,,,,119.0,1.0,,,,,,
435,,iti,,html-keyboard-response,435,695787,0.0-1.0-85.0-0.0-5.0,0,0,64144,,,,,,83.0,,,,,2.0,,,,,,,,,,,,,,,,,,,,,,,,,,,120.0,1.0,,,,,,
436,,choice,,html-keyboard-response,436,696675,0.0-1.0-86.0-0.0-0.0,0,0,64144,,873.0,,,68.0,84.0,85.0,3000.0,1000.0,0.0,2.0,1.0,60-60,1.0,,necklace,necklace,60.0,60.0,necklace8,necklace4,40.0,40.0,Anecklace20.jpg,emerald_diamond_necklace.jpg,/static/Category_learning/Stimuli/Experimental_stims/necklace/Anecklace20.jpg,/static/Category_learning/Stimuli/Experimental_stims/necklace/emerald_diamond_necklace.jpg,1.0,necklace,necklace,60.0,60.0,necklace8,necklace4,40.0,40.0,0.0,120.873,0.873,,,,,,
437,,confirmation,,html-keyboard-response,437,697307,0.0-1.0-86.0-0.0-1.0-0.0,0,0,64144,,,,,,84.0,,,,,2.0,,,,,,,,,,,,,,,,,,,,,,,,,,,121.5,0.627,,,,,,
438,,isi,,html-keyboard-response,438,700312,0.0-1.0-86.0-0.0-2.0,0,0,64144,,,,,,84.0,,,,,2.0,,,,,,,,,,,,,,,,,,,,,,,,,,,124.5,3.0,,,,,,
439,,feedback,,html-keyboard-response,439,701319,0.0-1.0-86.0-0.0-3.0-0.0,0,0,64144,,,,,,84.0,,,,,2.0,,,,,,,,,,,,,,,,,,,,,,,,,,,125.5,1.0,,,,,,
440,,iti,,html-keyboard-response,440,702326,0.0-1.0-86.0-0.0-5.0,0,0,64144,,,,,,84.0,,,,,2.0,,,,,,,,,,,,,,,,,,,,,,,,,,,126.5,1.0,,,,,,
441,,choice,,html-keyboard-response,441,703361,0.0-1.0-87.0-0.0-0.0,0,0,64144,,1027.0,,,75.0,85.0,86.0,2000.0,1500.0,0.0,2.0,0.0,20-20,,,fan,bowl,20.0,20.0,fan3,bowl1,20.0,0.0,CFT401.jpg,ABOWLS6.jpg,/static/Category_learning/Stimuli/Experimental_stims/fan/CFT401.jpg,/static/Category_learning/Stimuli/Experimental_stims/bowl/ABOWLS6.jpg,0.0,bowl,fan,20.0,20.0,bowl1,fan3,0.0,20.0,0.0,127.527,1.027,,,,,,
442,,confirmation,,html-keyboard-response,442,703842,0.0-1.0-87.0-0.0-1.0-0.0,0,0,64144,,,,,,85.0,,,,,2.0,,,,,,,,,,,,,,,,,,,,,,,,,,,128.0,0.473,,,,,,
443,,isi,,html-keyboard-response,443,705849,0.0-1.0-87.0-0.0-2.0,0,0,64144,,,,,,85.0,,,,,2.0,,,,,,,,,,,,,,,,,,,,,,,,,,,130.0,2.0,,,,,,
444,,feedback,,html-keyboard-response,444,706857,0.0-1.0-87.0-0.0-3.0-0.0,0,0,64144,,,,,,85.0,,,,,2.0,,,,,,,,,,,,,,,,,,,,,,,,,,,131.0,1.0,,,,,,
445,,iti,,html-keyboard-response,445,708363,0.0-1.0-87.0-0.0-5.0,0,0,64144,,,,,,85.0,,,,,2.0,,,,,,,,,,,,,,,,,,,,,,,,,,,132.5,1.5,,,,,,
446,,choice,,html-keyboard-response,446,709247,0.0-1.0-88.0-0.0-0.0,0,0,64144,,878.0,,,75.0,86.0,87.0,1000.0,1500.0,0.0,2.0,1.0,80-80,1.0,,yarn,yarn,80.0,80.0,yarn10,yarn3,60.0,100.0,revelation-yarn.jpg,Aballofblueya.jpg,/static/Category_learning/Stimuli/Experimental_stims/yarn/revelation-yarn.jpg,/static/Category_learning/Stimuli/Experimental_stims/yarn/Aballofblueya.jpg,0.0,yarn,yarn,80.0,80.0,yarn3,yarn10,100.0,60.0,0.0,133.378,0.878,,,,,,
447,,confirmation,,html-keyboard-response,447,709875,0.0-1.0-88.0-0.0-1.0-0.0,0,0,64144,,,,,,86.0,,,,,2.0,,,,,,,,,,,,,,,,,,,,,,,,,,,134.0,0.622,,,,,,
448,,isi,,html-keyboard-response,448,710882,0.0-1.0-88.0-0.0-2.0,0,0,64144,,,,,,86.0,,,,,2.0,,,,,,,,,,,,,,,,,,,,,,,,,,,135.0,1.0,,,,,,
449,,feedback,,html-keyboard-response,449,711888,0.0-1.0-88.0-0.0-3.0-0.0,0,0,64144,,,,,,86.0,,,,,2.0,,,,,,,,,,,,,,,,,,,,,,,,,,,136.0,1.0,,,,,,
450,,iti,,html-keyboard-response,450,713395,0.0-1.0-88.0-0.0-5.0,0,0,64144,,,,,,86.0,,,,,2.0,,,,,,,,,,,,,,,,,,,,,,,,,,,137.5,1.5,,,,,,
451,,choice,,html-keyboard-response,451,714323,0.0-1.0-89.0-0.0-0.0,0,0,64144,,915.0,,,75.0,87.0,88.0,1000.0,1000.0,0.0,2.0,0.0,40-60,,0.0,hammer,power strip,40.0,60.0,hammer7,power strip13,60.0,60.0,hammer01.jpg,01dccef1-d4b2-4d2e-a317-f2ed46b70b4b_400.jpg,/static/Category_learning/Stimuli/Experimental_stims/hammer/hammer01.jpg,/static/Category_learning/Stimuli/Experimental_stims/power strip/01dccef1-d4b2-4d2e-a317-f2ed46b70b4b_400.jpg,0.0,power strip,hammer,60.0,40.0,power strip13,hammer7,60.0,60.0,0.0,138.415,0.915,,,,,,
452,,confirmation,,html-keyboard-response,452,714916,0.0-1.0-89.0-0.0-1.0-0.0,0,0,64144,,,,,,87.0,,,,,2.0,,,,,,,,,,,,,,,,,,,,,,,,,,,139.0,0.585,,,,,,
453,,isi,,html-keyboard-response,453,715922,0.0-1.0-89.0-0.0-2.0,0,0,64144,,,,,,87.0,,,,,2.0,,,,,,,,,,,,,,,,,,,,,,,,,,,140.0,1.0,,,,,,
454,,feedback,,html-keyboard-response,454,716930,0.0-1.0-89.0-0.0-3.0-0.0,0,0,64144,,,,,,87.0,,,,,2.0,,,,,,,,,,,,,,,,,,,,,,,,,,,141.0,1.0,,,,,,
455,,iti,,html-keyboard-response,455,717935,0.0-1.0-89.0-0.0-5.0,0,0,64144,,,,,,87.0,,,,,2.0,,,,,,,,,,,,,,,,,,,,,,,,,,,142.0,1.0,,,,,,
456,,choice,,html-keyboard-response,456,718862,0.0-1.0-90.0-0.0-0.0,0,0,64144,,918.0,,,75.0,88.0,89.0,1500.0,3500.0,0.0,2.0,0.0,20-60,,0.0,baby carriage,poker card,20.0,60.0,baby carriage10,poker card7,0.0,80.0,peg_perego_uno_blu.jpg,22864416.thl.jpg,/static/Category_learning/Stimuli/Experimental_stims/baby carriage/peg_perego_uno_blu.jpg,/static/Category_learning/Stimuli/Experimental_stims/poker card/22864416.thl.jpg,0.0,poker card,baby carriage,60.0,20.0,poker card7,baby carriage10,80.0,0.0,0.0,142.918,0.918,,,,,,
457,,confirmation,,html-keyboard-response,457,719450,0.0-1.0-90.0-0.0-1.0-0.0,0,0,64144,,,,,,88.0,,,,,2.0,,,,,,,,,,,,,,,,,,,,,,,,,,,143.5,0.582,,,,,,
458,,isi,,html-keyboard-response,458,720957,0.0-1.0-90.0-0.0-2.0,0,0,64144,,,,,,88.0,,,,,2.0,,,,,,,,,,,,,,,,,,,,,,,,,,,145.0,1.5,,,,,,
459,,feedback,,html-keyboard-response,459,721964,0.0-1.0-90.0-0.0-3.0-0.0,0,0,64144,,,,,,88.0,,,,,2.0,,,,,,,,,,,,,,,,,,,,,,,,,,,146.0,1.0,,,,,,
460,,iti,,html-keyboard-response,460,725472,0.0-1.0-90.0-0.0-5.0,0,0,64144,,,,,,88.0,,,,,2.0,,,,,,,,,,,,,,,,,,,,,,,,,,,149.5,3.5,,,,,,
461,,choice,,html-keyboard-response,461,726108,0.0-1.0-91.0-0.0-0.0,0,0,64144,,627.0,,,68.0,89.0,90.0,1000.0,1000.0,0.0,2.0,0.0,40-80,,1.0,vase,motorcycle,80.0,40.0,vase1,motorcycle9,60.0,40.0,Avase114.jpg,speedbike.jpg,/static/Category_learning/Stimuli/Experimental_stims/vase/Avase114.jpg,/static/Category_learning/Stimuli/Experimental_stims/motorcycle/speedbike.jpg,1.0,vase,motorcycle,80.0,40.0,vase1,motorcycle9,60.0,40.0,0.0,150.127,0.627,,,,,,
462,,confirmation,,html-keyboard-response,462,726986,0.0-1.0-91.0-0.0-1.0-0.0,0,0,64144,,,,,,89.0,,,,,2.0,,,,,,,,,,,,,,,,,,,,,,,,,,,151.0,0.873,,,,,,
463,,isi,,html-keyboard-response,463,727993,0.0-1.0-91.0-0.0-2.0,0,0,64144,,,,,,89.0,,,,,2.0,,,,,,,,,,,,,,,,,,,,,,,,,,,152.0,1.0,,,,,,
464,,feedback,,html-keyboard-response,464,728999,0.0-1.0-91.0-0.0-3.0-0.0,0,0,64144,,,,,,89.0,,,,,2.0,,,,,,,,,,,,,,,,,,,,,,,,,,,153.0,1.0,,,,,,
465,,iti,,html-keyboard-response,465,730006,0.0-1.0-91.0-0.0-5.0,0,0,64144,,,,,,89.0,,,,,2.0,,,,,,,,,,,,,,,,,,,,,,,,,,,154.0,1.0,,,,,,
466,,choice,,html-keyboard-response,466,730846,0.0-1.0-92.0-0.0-0.0,0,0,64144,,831.0,,,75.0,90.0,91.0,3500.0,3500.0,0.0,2.0,0.0,80-80,,,tent,train,80.0,80.0,tent9,train14,60.0,100.0,Red Canyon Tent.jpg,images-products-childcraft-g83501.jpg,/static/Category_learning/Stimuli/Experimental_stims/tent/Red Canyon Tent.jpg,/static/Category_learning/Stimuli/Experimental_stims/train/images-products-childcraft-g83501.jpg,0.0,train,tent,80.0,80.0,train14,tent9,100.0,60.0,0.0,154.831,0.831,,,,,,
467,,confirmation,,html-keyboard-response,467,731521,0.0-1.0-92.0-0.0-1.0-0.0,0,0,64144,,,,,,90.0,,,,,2.0,,,,,,,,,,,,,,,,,,,,,,,,,,,155.5,0.669,,,,,,
468,,isi,,html-keyboard-response,468,735028,0.0-1.0-92.0-0.0-2.0,0,0,64144,,,,,,90.0,,,,,2.0,,,,,,,,,,,,,,,,,,,,,,,,,,,159.0,3.5,,,,,,
469,,feedback,,html-keyboard-response,469,736034,0.0-1.0-92.0-0.0-3.0-0.0,0,0,64144,,,,,,90.0,,,,,2.0,,,,,,,,,,,,,,,,,,,,,,,,,,,160.0,1.0,,,,,,
470,,iti,,html-keyboard-response,470,739541,0.0-1.0-92.0-0.0-5.0,0,0,64144,,,,,,90.0,,,,,2.0,,,,,,,,,,,,,,,,,,,,,,,,,,,163.5,3.5,,,,,,
471,,choice,,html-keyboard-response,471,740585,0.0-1.0-93.0-0.0-0.0,0,0,64144,,1032.0,,,68.0,91.0,92.0,1000.0,1000.0,0.0,2.0,0.0,20-60,,1.0,patio lounge chair,door knob,60.0,20.0,patio lounge chair5,door knob6,40.0,20.0,Steel_Assembling_Lounge.jpg,30fdcb17-b0fd-4f26-8cd8-11adde46fb79_4.jpg,/static/Category_learning/Stimuli/Experimental_stims/patio lounge chair/Steel_Assembling_Lounge.jpg,/static/Category_learning/Stimuli/Experimental_stims/door knob/30fdcb17-b0fd-4f26-8cd8-11adde46fb79_4.jpg,1.0,patio lounge chair,door knob,60.0,20.0,patio lounge chair5,door knob6,40.0,20.0,0.0,164.532,1.032,,,,,,
472,,confirmation,,html-keyboard-response,472,741060,0.0-1.0-93.0-0.0-1.0-0.0,0,0,64144,,,,,,91.0,,,,,2.0,,,,,,,,,,,,,,,,,,,,,,,,,,,165.0,0.468,,,,,,
473,,isi,,html-keyboard-response,473,742067,0.0-1.0-93.0-0.0-2.0,0,0,64144,,,,,,91.0,,,,,2.0,,,,,,,,,,,,,,,,,,,,,,,,,,,166.0,1.0,,,,,,
474,,feedback,,html-keyboard-response,474,743073,0.0-1.0-93.0-0.0-3.0-0.0,0,0,64144,,,,,,91.0,,,,,2.0,,,,,,,,,,,,,,,,,,,,,,,,,,,167.0,1.0,,,,,,
475,,iti,,html-keyboard-response,475,744080,0.0-1.0-93.0-0.0-5.0,0,0,64144,,,,,,91.0,,,,,2.0,,,,,,,,,,,,,,,,,,,,,,,,,,,168.0,1.0,,,,,,
