,success,ttype,start_time,trial_type,trial_index,time_elapsed,internal_node_id,warning,missed_checkup,PID,view_history,rt,responses,repeat_instructions,key_press,index,trial_num,isi,iti,is_practice,block,old_trial,pair_type,within_category,high_cat_on_left,left_category,right_category,left_category_value,right_category_value,left_exemplar,right_exemplar,left_exemplar_value,right_exemplar_value,left_img,right_img,left_img_path,right_img_path,left_chosen,chosen_category,unchosen_category,chosen_category_value,unchosen_category_value,chosen_exemplar,unchosen_exemplar,chosen_exemplar_value,unchosen_exemplar_value,no_response,onset,duration,end_practice,total_bonus_tally,category,category_group_value,category_value_response,did_not_enter_response
0,True,full_screen,d05202022hr1712,fullscreen,0,2908,0.0-0.0,0,0,76970,,,,,,,,,,,,,,,,,,,,,,,,,,,,,,,,,,,,,,,,,,,,,
1,,category_learning_instructions,,instructions,1,7342,0.0-1.0-0.0-0.0,0,0,76970,"[{""page_index"":0,""viewing_time"":1974},{""page_index"":1,""viewing_time"":433},{""page_index"":2,""viewing_time"":267},{""page_index"":3,""viewing_time"":321},{""page_index"":4,""viewing_time"":425},{""page_index"":5,""viewing_time"":507},{""page_index"":6,""viewing_time"":504}]",4431.0,,,,,,,,,,,,,,,,,,,,,,,,,,,,,,,,,,,,,,,,,,,
2,,category_learning_comprehension_check,,survey-multi-choice,2,12072,0.0-1.0-0.0-1.0,0,0,76970,,4726.0,"{""Q0"":""True"",""Q1"":""True"",""Q2"":""Stay the same"",""Q3"":""D for left and K for right""}",0.0,,,,,,,,,,,,,,,,,,,,,,,,,,,,,,,,,,,,,,,,,
3,,,,html-keyboard-response,3,13122,0.0-1.0-1.0,0,0,76970,,1047.0,,,68.0,,,,,,,,,,,,,,,,,,,,,,,,,,,,,,,,,,,,,,,,
4,,choice,,html-keyboard-response,4,13620,0.0-1.0-2.0-0.0-0.0,0,0,76970,,493.0,,,68.0,0.0,0.0,1500.0,1000.0,1.0,0.0,0.0,20-80,,0.0,bagel,dumbbell,20.0,80.0,bagel1,dumbbell1,0.0,80.0,bagels_pumpernickel_large.jpg,31B64EN68AL._AA280_.jpg,/static/Category_learning/Stimuli/Practice_stims/bagel/bagels_pumpernickel_large.jpg,/static/Category_learning/Stimuli/Practice_stims/dumbbell/31B64EN68AL._AA280_.jpg,1.0,bagel,dumbbell,20.0,80.0,bagel1,dumbbell1,0.0,80.0,0.0,0.493,0.493,,,,,,
5,,confirmation,,html-keyboard-response,5,14635,0.0-1.0-2.0-0.0-1.0-0.0,0,0,76970,,,,,,0.0,,,,,,,,,,,,,,,,,,,,,,,,,,,,,,,,1.5,1.0070000000000001,,,,,,
6,,isi,,html-keyboard-response,6,14739,0.0-1.0-2.0-0.0-2.0,0,0,76970,,,,,,,,,,,,,,,,,,,,,,,,,,,,,,,,,,,,,,3.0,1.5,,,,,,
7,,feedback,,html-keyboard-response,7,15743,0.0-1.0-2.0-0.0-3.0-0.0,0,0,76970,,,,,,0.0,,,,,,,,,,,,,,,,,,,,,,,,,,,,,,,,4.0,1.0,,,,,,
8,,iti,,html-keyboard-response,8,15848,0.0-1.0-2.0-0.0-5.0,0,0,76970,,,,,,,,,,,,,,,,,,,,,,,,,,,,,,,,,,,,,,5.0,1.0,,,,,,
9,,choice,,html-keyboard-response,9,16325,0.0-1.0-3.0-0.0-0.0,0,0,76970,,474.0,,,68.0,1.0,1.0,3000.0,1500.0,1.0,0.0,0.0,20-40,,1.0,calculator,bagel,40.0,20.0,calculator2,bagel2,20.0,20.0,22829064.thl.jpg,bagels_cinnraisin_large.jpg,/static/Category_learning/Stimuli/Practice_stims/calculator/22829064.thl.jpg,/static/Category_learning/Stimuli/Practice_stims/bagel/bagels_cinnraisin_large.jpg,1.0,calculator,bagel,40.0,20.0,calculator2,bagel2,20.0,20.0,0.0,5.474,0.474,,,,,,
10,,confirmation,,html-keyboard-response,10,17355,0.0-1.0-3.0-0.0-1.0-0.0,0,0,76970,,,,,,1.0,,,,,,,,,,,,,,,,,,,,,,,,,,,,,,,,6.5,1.026,,,,,,
11,,isi,,html-keyboard-response,11,17462,0.0-1.0-3.0-0.0-2.0,0,0,76970,,,,,,,,,,,,,,,,,,,,,,,,,,,,,,,,,,,,,,9.5,3.0,,,,,,
12,,feedback,,html-keyboard-response,12,18470,0.0-1.0-3.0-0.0-3.0-0.0,0,0,76970,,,,,,1.0,,,,,,,,,,,,,,,,,,,,,,,,,,,,,,,,10.5,1.0,,,,,,
13,,iti,,html-keyboard-response,13,18572,0.0-1.0-3.0-0.0-5.0,0,0,76970,,,,,,,,,,,,,,,,,,,,,,,,,,,,,,,,,,,,,,12.0,1.5,,,,,,
14,,choice,,html-keyboard-response,14,19190,0.0-1.0-4.0-0.0-0.0,0,0,76970,,614.0,,,75.0,2.0,2.0,2000.0,3000.0,1.0,0.0,0.0,60-80,,0.0,clock,dumbbell,60.0,80.0,clock2,dumbbell2,60.0,100.0,26373355.thl.jpg,31K8MR6TMBL._SS500_.jpg,/static/Category_learning/Stimuli/Practice_stims/clock/26373355.thl.jpg,/static/Category_learning/Stimuli/Practice_stims/dumbbell/31K8MR6TMBL._SS500_.jpg,0.0,dumbbell,clock,80.0,60.0,dumbbell2,clock2,100.0,60.0,0.0,12.614,0.614,,,,,,
15,,confirmation,,html-keyboard-response,15,20083,0.0-1.0-4.0-0.0-1.0-0.0,0,0,76970,,,,,,2.0,,,,,,,,,,,,,,,,,,,,,,,,,,,,,,,,13.5,0.8859999999999999,,,,,,
16,,isi,,html-keyboard-response,16,20190,0.0-1.0-4.0-0.0-2.0,0,0,76970,,,,,,,,,,,,,,,,,,,,,,,,,,,,,,,,,,,,,,15.5,2.0,,,,,,
17,,feedback,,html-keyboard-response,17,21196,0.0-1.0-4.0-0.0-3.0-0.0,0,0,76970,,,,,,2.0,,,,,,,,,,,,,,,,,,,,,,,,,,,,,,,,16.5,1.0,,,,,,
18,,iti,,html-keyboard-response,18,21303,0.0-1.0-4.0-0.0-5.0,0,0,76970,,,,,,,,,,,,,,,,,,,,,,,,,,,,,,,,,,,,,,19.5,3.0,,,,,,
19,,choice,,html-keyboard-response,19,22012,0.0-1.0-5.0-0.0-0.0,0,0,76970,,707.0,,,75.0,3.0,3.0,1000.0,2000.0,1.0,0.0,0.0,40-80,,0.0,calculator,clock,40.0,60.0,calculator1,clock1,40.0,40.0,22829184.thl.jpg,Aalarmclock2.jpg,/static/Category_learning/Stimuli/Practice_stims/calculator/22829184.thl.jpg,/static/Category_learning/Stimuli/Practice_stims/clock/Aalarmclock2.jpg,0.0,clock,calculator,60.0,40.0,clock1,calculator1,40.0,40.0,0.0,20.207,0.7070000000000001,,,,,,
20,,confirmation,,html-keyboard-response,20,22811,0.0-1.0-5.0-0.0-1.0-0.0,0,0,76970,,,,,,3.0,,,,,,,,,,,,,,,,,,,,,,,,,,,,,,,,21.0,0.7929999999999999,,,,,,
21,,isi,,html-keyboard-response,21,22917,0.0-1.0-5.0-0.0-2.0,0,0,76970,,,,,,,,,,,,,,,,,,,,,,,,,,,,,,,,,,,,,,22.0,1.0,,,,,,
22,,feedback,,html-keyboard-response,22,23924,0.0-1.0-5.0-0.0-3.0-0.0,0,0,76970,,,,,,3.0,,,,,,,,,,,,,,,,,,,,,,,,,,,,,,,,23.0,1.0,,,,,,
23,,iti,,html-keyboard-response,23,24032,0.0-1.0-5.0-0.0-5.0,0,0,76970,,,,,,,,,,,,,,,,,,,,,,,,,,,,,,,,,,,,,,25.0,2.0,,,,,,
24,,choice,,html-keyboard-response,24,24573,0.0-1.0-6.0-0.0-0.0,0,0,76970,,538.0,,,68.0,4.0,4.0,2500.0,2500.0,1.0,0.0,0.0,20-60,,1.0,dumbbell,bagel,80.0,20.0,dumbbell3,bagel3,100.0,40.0,41K7QVRX50L._SS500_.jpg,photo-169.jpg,/static/Category_learning/Stimuli/Practice_stims/dumbbell/41K7QVRX50L._SS500_.jpg,/static/Category_learning/Stimuli/Practice_stims/bagel/photo-169.jpg,1.0,dumbbell,bagel,80.0,20.0,dumbbell3,bagel3,100.0,40.0,0.0,25.538,0.5379999999999999,1.0,,,,,
25,,confirmation,,html-keyboard-response,25,25539,0.0-1.0-6.0-0.0-1.0-0.0,0,0,76970,,,,,,4.0,,,,,,,,,,,,,,,,,,,,,,,,,,,,,,,,26.5,0.9620000000000001,,,,,,
26,,isi,,html-keyboard-response,26,25641,0.0-1.0-6.0-0.0-2.0,0,0,76970,,,,,,,,,,,,,,,,,,,,,,,,,,,,,,,,,,,,,,29.0,2.5,,,,,,
27,,feedback,,html-keyboard-response,27,26649,0.0-1.0-6.0-0.0-3.0-0.0,0,0,76970,,,,,,4.0,,,,,,,,,,,,,,,,,,,,,,,,,,,,,,,,30.0,1.0,,,,,,
28,,iti,,html-keyboard-response,28,26752,0.0-1.0-6.0-0.0-5.0,0,0,76970,,,,,,,,,,,,,,,,,,,,,,,,,,,,,,,,,,,,,,32.5,2.5,,,,,,
29,,practice_over,,html-keyboard-response,29,27708,0.0-1.0-6.0-0.0-6.0-0.0,0,0,76970,,954.0,,,68.0,4.0,,,,,,,,,,,,,,,,,,,,,,,,,,,,,,,,,,,,,,,
30,,start_run,,html-keyboard-response,30,29032,0.0-1.0-6.0-0.0-6.0-1.0,0,0,76970,,1323.0,,,84.0,,,,,,,,,,,,,,,,,,,,,,,,,,,,,,,,,,,,,,,,
31,,choice,,html-keyboard-response,31,29628,0.0-1.0-7.0-0.0-0.0,0,0,76970,,593.0,,,68.0,5.0,5.0,2000.0,3500.0,0.0,1.0,0.0,20-60,,0.0,necklace,bench,20.0,60.0,necklace15,bench3,40.0,40.0,necklascenew04.jpg,26419540.thl.jpg,/static/Category_learning/Stimuli/Experimental_stims/necklace/necklascenew04.jpg,/static/Category_learning/Stimuli/Experimental_stims/bench/26419540.thl.jpg,1.0,necklace,bench,20.0,60.0,necklace15,bench3,40.0,40.0,0.0,0.593,0.593,,,,,,
32,,confirmation,,html-keyboard-response,32,30540,0.0-1.0-7.0-0.0-1.0-0.0,0,0,76970,,,,,,5.0,,,,,,,,,,,,,,,,,,,,,,,,,,,,,,,,1.5,0.907,,,,,,
33,,isi,,html-keyboard-response,33,30647,0.0-1.0-7.0-0.0-2.0,0,0,76970,,,,,,,,,,,,,,,,,,,,,,,,,,,,,,,,,,,,,,3.5,2.0,,,,,,
34,,feedback,,html-keyboard-response,34,31652,0.0-1.0-7.0-0.0-3.0-0.0,0,0,76970,,,,,,5.0,,,,,,,,,,,,,,,,,,,,,,,,,,,,,,,,4.5,1.0,,,,,,
35,,iti,,html-keyboard-response,35,31755,0.0-1.0-7.0-0.0-5.0,0,0,76970,,,,,,,,,,,,,,,,,,,,,,,,,,,,,,,,,,,,,,8.0,3.5,,,,,,
36,,choice,,html-keyboard-response,36,32450,0.0-1.0-8.0-0.0-0.0,0,0,76970,,694.0,,,75.0,6.0,6.0,2000.0,1000.0,0.0,1.0,0.0,20-20,,,power strip,seashell,20.0,20.0,power strip8,seashell7,40.0,20.0,3118YGHQWXL._AA262_.jpg,seashell34.jpg,/static/Category_learning/Stimuli/Experimental_stims/power strip/3118YGHQWXL._AA262_.jpg,/static/Category_learning/Stimuli/Experimental_stims/seashell/seashell34.jpg,0.0,seashell,power strip,20.0,20.0,seashell7,power strip8,20.0,40.0,0.0,8.693999999999999,0.6940000000000001,,,,,,
37,,confirmation,,html-keyboard-response,37,33259,0.0-1.0-8.0-0.0-1.0-0.0,0,0,76970,,,,,,6.0,,,,,,,,,,,,,,,,,,,,,,,,,,,,,,,,9.5,0.8059999999999999,,,,,,
38,,isi,,html-keyboard-response,38,33366,0.0-1.0-8.0-0.0-2.0,0,0,76970,,,,,,,,,,,,,,,,,,,,,,,,,,,,,,,,,,,,,,11.5,2.0,,,,,,
39,,feedback,,html-keyboard-response,39,34370,0.0-1.0-8.0-0.0-3.0-0.0,0,0,76970,,,,,,6.0,,,,,,,,,,,,,,,,,,,,,,,,,,,,,,,,12.5,1.0,,,,,,
40,,iti,,html-keyboard-response,40,34474,0.0-1.0-8.0-0.0-5.0,0,0,76970,,,,,,,,,,,,,,,,,,,,,,,,,,,,,,,,,,,,,,13.5,1.0,,,,,,
41,,choice,,html-keyboard-response,41,35033,0.0-1.0-9.0-0.0-0.0,0,0,76970,,556.0,,,75.0,7.0,7.0,1500.0,2000.0,0.0,1.0,0.0,20-40,,1.0,telescope,poker card,40.0,20.0,telescope1,poker card9,20.0,40.0,celestron nexstar 114 gt reflector telescope.jpg,9817230.thl.jpg,/static/Category_learning/Stimuli/Experimental_stims/telescope/celestron nexstar 114 gt reflector telescope.jpg,/static/Category_learning/Stimuli/Experimental_stims/poker card/9817230.thl.jpg,0.0,poker card,telescope,20.0,40.0,poker card9,telescope1,40.0,20.0,0.0,14.056,0.556,,,,,,
42,,confirmation,,html-keyboard-response,42,35982,0.0-1.0-9.0-0.0-1.0-0.0,0,0,76970,,,,,,7.0,,,,,,,,,,,,,,,,,,,,,,,,,,,,,,,,15.0,0.9440000000000001,,,,,,
43,,isi,,html-keyboard-response,43,36088,0.0-1.0-9.0-0.0-2.0,0,0,76970,,,,,,,,,,,,,,,,,,,,,,,,,,,,,,,,,,,,,,16.5,1.5,,,,,,
44,,feedback,,html-keyboard-response,44,37094,0.0-1.0-9.0-0.0-3.0-0.0,0,0,76970,,,,,,7.0,,,,,,,,,,,,,,,,,,,,,,,,,,,,,,,,17.5,1.0,,,,,,
45,,iti,,html-keyboard-response,45,37199,0.0-1.0-9.0-0.0-5.0,0,0,76970,,,,,,,,,,,,,,,,,,,,,,,,,,,,,,,,,,,,,,19.5,2.0,,,,,,
46,,choice,,html-keyboard-response,46,38326,0.0-1.0-10.0-0.0-0.0,0,0,76970,,1125.0,,,75.0,8.0,8.0,3500.0,1000.0,0.0,1.0,0.0,60-60,,,door knob,dresser,60.0,60.0,door knob7,dresser4,40.0,80.0,doorknob2.jpg,ADRESSE40.jpg,/static/Category_learning/Stimuli/Experimental_stims/door knob/doorknob2.jpg,/static/Category_learning/Stimuli/Experimental_stims/dresser/ADRESSE40.jpg,0.0,dresser,door knob,60.0,60.0,dresser4,door knob7,80.0,40.0,0.0,20.625,1.125,,,,,,
47,,confirmation,,html-keyboard-response,47,38706,0.0-1.0-10.0-0.0-1.0-0.0,0,0,76970,,,,,,8.0,,,,,,,,,,,,,,,,,,,,,,,,,,,,,,,,21.0,0.375,,,,,,
48,,isi,,html-keyboard-response,48,38809,0.0-1.0-10.0-0.0-2.0,0,0,76970,,,,,,,,,,,,,,,,,,,,,,,,,,,,,,,,,,,,,,24.5,3.5,,,,,,
49,,feedback,,html-keyboard-response,49,39812,0.0-1.0-10.0-0.0-3.0-0.0,0,0,76970,,,,,,8.0,,,,,,,,,,,,,,,,,,,,,,,,,,,,,,,,25.5,1.0,,,,,,
50,,iti,,html-keyboard-response,50,39917,0.0-1.0-10.0-0.0-5.0,0,0,76970,,,,,,,,,,,,,,,,,,,,,,,,,,,,,,,,,,,,,,26.5,1.0,,,,,,
51,,choice,,html-keyboard-response,51,40440,0.0-1.0-11.0-0.0-0.0,0,0,76970,,520.0,,,68.0,9.0,9.0,1000.0,1000.0,0.0,1.0,0.0,20-60,,0.0,poker card,desk,20.0,60.0,poker card8,desk13,20.0,80.0,22864392.thl.jpg,26427865.thl.jpg,/static/Category_learning/Stimuli/Experimental_stims/poker card/22864392.thl.jpg,/static/Category_learning/Stimuli/Experimental_stims/desk/26427865.thl.jpg,1.0,poker card,desk,20.0,60.0,poker card8,desk13,20.0,80.0,0.0,27.02,0.52,,,,,,
52,,confirmation,,html-keyboard-response,52,41427,0.0-1.0-11.0-0.0-1.0-0.0,0,0,76970,,,,,,9.0,,,,,,,,,,,,,,,,,,,,,,,,,,,,,,,,28.0,0.98,,,,,,
53,,isi,,html-keyboard-response,53,41531,0.0-1.0-11.0-0.0-2.0,0,0,76970,,,,,,,,,,,,,,,,,,,,,,,,,,,,,,,,,,,,,,29.0,1.0,,,,,,
54,,feedback,,html-keyboard-response,54,42535,0.0-1.0-11.0-0.0-3.0-0.0,0,0,76970,,,,,,9.0,,,,,,,,,,,,,,,,,,,,,,,,,,,,,,,,30.0,1.0,,,,,,
55,,iti,,html-keyboard-response,55,42640,0.0-1.0-11.0-0.0-5.0,0,0,76970,,,,,,,,,,,,,,,,,,,,,,,,,,,,,,,,,,,,,,31.0,1.0,,,,,,
56,,choice,,html-keyboard-response,56,43186,0.0-1.0-12.0-0.0-0.0,0,0,76970,,543.0,,,68.0,10.0,10.0,1000.0,1000.0,0.0,1.0,0.0,20-60,,1.0,bench,nail polish,60.0,20.0,bench8,nail polish6,80.0,0.0,APARKBE14.jpg,127_t.jpg,/static/Category_learning/Stimuli/Experimental_stims/bench/APARKBE14.jpg,/static/Category_learning/Stimuli/Experimental_stims/nail polish/127_t.jpg,1.0,bench,nail polish,60.0,20.0,bench8,nail polish6,80.0,0.0,0.0,31.543000000000003,0.5429999999999999,,,,,,
57,,confirmation,,html-keyboard-response,57,44148,0.0-1.0-12.0-0.0-1.0-0.0,0,0,76970,,,,,,10.0,,,,,,,,,,,,,,,,,,,,,,,,,,,,,,,,32.5,0.9570000000000001,,,,,,
58,,isi,,html-keyboard-response,58,44252,0.0-1.0-12.0-0.0-2.0,0,0,76970,,,,,,,,,,,,,,,,,,,,,,,,,,,,,,,,,,,,,,33.5,1.0,,,,,,
59,,feedback,,html-keyboard-response,59,45259,0.0-1.0-12.0-0.0-3.0-0.0,0,0,76970,,,,,,10.0,,,,,,,,,,,,,,,,,,,,,,,,,,,,,,,,34.5,1.0,,,,,,
60,,iti,,html-keyboard-response,60,45364,0.0-1.0-12.0-0.0-5.0,0,0,76970,,,,,,,,,,,,,,,,,,,,,,,,,,,,,,,,,,,,,,35.5,1.0,,,,,,
61,,choice,,html-keyboard-response,61,45882,0.0-1.0-13.0-0.0-0.0,0,0,76970,,516.0,,,75.0,11.0,11.0,1500.0,3000.0,0.0,1.0,0.0,20-80,,0.0,pen,microscope,20.0,80.0,pen11,microscope4,0.0,80.0,pen01.jpg,55071208.JPG,/static/Category_learning/Stimuli/Experimental_stims/pen/pen01.jpg,/static/Category_learning/Stimuli/Experimental_stims/microscope/55071208.JPG,0.0,microscope,pen,80.0,20.0,microscope4,pen11,80.0,0.0,0.0,36.016,0.516,,,,,,
62,,confirmation,,html-keyboard-response,62,46871,0.0-1.0-13.0-0.0-1.0-0.0,0,0,76970,,,,,,11.0,,,,,,,,,,,,,,,,,,,,,,,,,,,,,,,,37.0,0.9840000000000001,,,,,,
63,,isi,,html-keyboard-response,63,46979,0.0-1.0-13.0-0.0-2.0,0,0,76970,,,,,,,,,,,,,,,,,,,,,,,,,,,,,,,,,,,,,,38.5,1.5,,,,,,
64,,feedback,,html-keyboard-response,64,47984,0.0-1.0-13.0-0.0-3.0-0.0,0,0,76970,,,,,,11.0,,,,,,,,,,,,,,,,,,,,,,,,,,,,,,,,39.5,1.0,,,,,,
65,,iti,,html-keyboard-response,65,48088,0.0-1.0-13.0-0.0-5.0,0,0,76970,,,,,,,,,,,,,,,,,,,,,,,,,,,,,,,,,,,,,,42.5,3.0,,,,,,
66,,choice,,html-keyboard-response,66,48496,0.0-1.0-14.0-0.0-0.0,0,0,76970,,406.0,,,68.0,12.0,12.0,1500.0,2000.0,0.0,1.0,0.0,20-60,,0.0,necklace,bowl,20.0,60.0,necklace1,bowl14,0.0,60.0,26443173.thl.jpg,Aredglassbowl.jpg,/static/Category_learning/Stimuli/Experimental_stims/necklace/26443173.thl.jpg,/static/Category_learning/Stimuli/Experimental_stims/bowl/Aredglassbowl.jpg,1.0,necklace,bowl,20.0,60.0,necklace1,bowl14,0.0,60.0,0.0,42.906000000000006,0.406,,,,,,
67,,confirmation,,html-keyboard-response,67,49595,0.0-1.0-14.0-0.0-1.0-0.0,0,0,76970,,,,,,12.0,,,,,,,,,,,,,,,,,,,,,,,,,,,,,,,,44.0,1.094,,,,,,
68,,isi,,html-keyboard-response,68,49697,0.0-1.0-14.0-0.0-2.0,0,0,76970,,,,,,,,,,,,,,,,,,,,,,,,,,,,,,,,,,,,,,45.5,1.5,,,,,,
69,,feedback,,html-keyboard-response,69,50703,0.0-1.0-14.0-0.0-3.0-0.0,0,0,76970,,,,,,12.0,,,,,,,,,,,,,,,,,,,,,,,,,,,,,,,,46.5,1.0,,,,,,
70,,iti,,html-keyboard-response,70,50811,0.0-1.0-14.0-0.0-5.0,0,0,76970,,,,,,,,,,,,,,,,,,,,,,,,,,,,,,,,,,,,,,48.5,2.0,,,,,,
71,,choice,,html-keyboard-response,71,51557,0.0-1.0-15.0-0.0-0.0,0,0,76970,,742.0,,,68.0,13.0,13.0,3500.0,3500.0,0.0,1.0,1.0,20-20,1.0,,poker card,poker card,20.0,20.0,poker card8,poker card9,20.0,40.0,22864392.thl.jpg,9817230.thl.jpg,/static/Category_learning/Stimuli/Experimental_stims/poker card/22864392.thl.jpg,/static/Category_learning/Stimuli/Experimental_stims/poker card/9817230.thl.jpg,1.0,poker card,poker card,20.0,20.0,poker card8,poker card9,20.0,40.0,0.0,49.242,0.742,,,,,,
72,,confirmation,,html-keyboard-response,72,52319,0.0-1.0-15.0-0.0-1.0-0.0,0,0,76970,,,,,,13.0,,,,,,,,,,,,,,,,,,,,,,,,,,,,,,,,50.0,0.758,,,,,,
73,,isi,,html-keyboard-response,73,52423,0.0-1.0-15.0-0.0-2.0,0,0,76970,,,,,,,,,,,,,,,,,,,,,,,,,,,,,,,,,,,,,,53.5,3.5,,,,,,
74,,feedback,,html-keyboard-response,74,53430,0.0-1.0-15.0-0.0-3.0-0.0,0,0,76970,,,,,,13.0,,,,,,,,,,,,,,,,,,,,,,,,,,,,,,,,54.5,1.0,,,,,,
75,,iti,,html-keyboard-response,75,53535,0.0-1.0-15.0-0.0-5.0,0,0,76970,,,,,,,,,,,,,,,,,,,,,,,,,,,,,,,,,,,,,,58.0,3.5,,,,,,
76,,choice,,html-keyboard-response,76,54298,0.0-1.0-16.0-0.0-0.0,0,0,76970,,760.0,,,68.0,14.0,14.0,1000.0,1000.0,0.0,1.0,0.0,60-80,,1.0,microscope,bench,80.0,60.0,microscope12,bench12,60.0,80.0,usbdigitalmicroscope1_small1.jpg,22927976.thl.jpg,/static/Category_learning/Stimuli/Experimental_stims/microscope/usbdigitalmicroscope1_small1.jpg,/static/Category_learning/Stimuli/Experimental_stims/bench/22927976.thl.jpg,1.0,microscope,bench,80.0,60.0,microscope12,bench12,60.0,80.0,0.0,58.76,0.76,,,,,,
77,,confirmation,,html-keyboard-response,77,55045,0.0-1.0-16.0-0.0-1.0-0.0,0,0,76970,,,,,,14.0,,,,,,,,,,,,,,,,,,,,,,,,,,,,,,,,59.5,0.74,,,,,,
78,,isi,,html-keyboard-response,78,55151,0.0-1.0-16.0-0.0-2.0,0,0,76970,,,,,,,,,,,,,,,,,,,,,,,,,,,,,,,,,,,,,,60.5,1.0,,,,,,
79,,feedback,,html-keyboard-response,79,56158,0.0-1.0-16.0-0.0-3.0-0.0,0,0,76970,,,,,,14.0,,,,,,,,,,,,,,,,,,,,,,,,,,,,,,,,61.5,1.0,,,,,,
80,,iti,,html-keyboard-response,80,56265,0.0-1.0-16.0-0.0-5.0,0,0,76970,,,,,,,,,,,,,,,,,,,,,,,,,,,,,,,,,,,,,,62.5,1.0,,,,,,
81,,choice,,html-keyboard-response,81,56892,0.0-1.0-17.0-0.0-0.0,0,0,76970,,624.0,,,68.0,15.0,15.0,1000.0,1000.0,0.0,1.0,1.0,80-80,1.0,,microscope,microscope,80.0,80.0,microscope12,microscope4,60.0,80.0,usbdigitalmicroscope1_small1.jpg,55071208.JPG,/static/Category_learning/Stimuli/Experimental_stims/microscope/usbdigitalmicroscope1_small1.jpg,/static/Category_learning/Stimuli/Experimental_stims/microscope/55071208.JPG,1.0,microscope,microscope,80.0,80.0,microscope12,microscope4,60.0,80.0,0.0,63.123999999999995,0.624,,,,,,
82,,confirmation,,html-keyboard-response,82,57771,0.0-1.0-17.0-0.0-1.0-0.0,0,0,76970,,,,,,15.0,,,,,,,,,,,,,,,,,,,,,,,,,,,,,,,,64.0,0.8759999999999999,,,,,,
83,,isi,,html-keyboard-response,83,57877,0.0-1.0-17.0-0.0-2.0,0,0,76970,,,,,,,,,,,,,,,,,,,,,,,,,,,,,,,,,,,,,,65.0,1.0,,,,,,
84,,feedback,,html-keyboard-response,84,58881,0.0-1.0-17.0-0.0-3.0-0.0,0,0,76970,,,,,,15.0,,,,,,,,,,,,,,,,,,,,,,,,,,,,,,,,66.0,1.0,,,,,,
85,,iti,,html-keyboard-response,85,58988,0.0-1.0-17.0-0.0-5.0,0,0,76970,,,,,,,,,,,,,,,,,,,,,,,,,,,,,,,,,,,,,,67.0,1.0,,,,,,
86,,choice,,html-keyboard-response,86,59699,0.0-1.0-18.0-0.0-0.0,0,0,76970,,708.0,,,68.0,16.0,16.0,1000.0,1000.0,0.0,1.0,0.0,20-40,,0.0,poker card,yarn,20.0,40.0,poker card3,yarn4,0.0,40.0,9817131.thl.jpg,amethyst dreaming boho hy sml.jpg,/static/Category_learning/Stimuli/Experimental_stims/poker card/9817131.thl.jpg,/static/Category_learning/Stimuli/Experimental_stims/yarn/amethyst dreaming boho hy sml.jpg,1.0,poker card,yarn,20.0,40.0,poker card3,yarn4,0.0,40.0,0.0,67.708,0.708,,,,,,
87,,confirmation,,html-keyboard-response,87,60499,0.0-1.0-18.0-0.0-1.0-0.0,0,0,76970,,,,,,16.0,,,,,,,,,,,,,,,,,,,,,,,,,,,,,,,,68.5,0.792,,,,,,
88,,isi,,html-keyboard-response,88,60603,0.0-1.0-18.0-0.0-2.0,0,0,76970,,,,,,,,,,,,,,,,,,,,,,,,,,,,,,,,,,,,,,69.5,1.0,,,,,,
89,,feedback,,html-keyboard-response,89,61609,0.0-1.0-18.0-0.0-3.0-0.0,0,0,76970,,,,,,16.0,,,,,,,,,,,,,,,,,,,,,,,,,,,,,,,,70.5,1.0,,,,,,
90,,iti,,html-keyboard-response,90,61713,0.0-1.0-18.0-0.0-5.0,0,0,76970,,,,,,,,,,,,,,,,,,,,,,,,,,,,,,,,,,,,,,71.5,1.0,,,,,,
91,,choice,,html-keyboard-response,91,62407,0.0-1.0-19.0-0.0-0.0,0,0,76970,,691.0,,,75.0,17.0,17.0,3500.0,1000.0,0.0,1.0,0.0,40-80,,0.0,trumpet,microscope,40.0,80.0,trumpet11,microscope8,20.0,80.0,JUPITER+JTR604L.jpg,AMICROS21.jpg,/static/Category_learning/Stimuli/Experimental_stims/trumpet/JUPITER+JTR604L.jpg,/static/Category_learning/Stimuli/Experimental_stims/microscope/AMICROS21.jpg,0.0,microscope,trumpet,80.0,40.0,microscope8,trumpet11,80.0,20.0,0.0,72.191,0.691,,,,,,
92,,confirmation,,html-keyboard-response,92,63224,0.0-1.0-19.0-0.0-1.0-0.0,0,0,76970,,,,,,17.0,,,,,,,,,,,,,,,,,,,,,,,,,,,,,,,,73.0,0.809,,,,,,
93,,isi,,html-keyboard-response,93,63328,0.0-1.0-19.0-0.0-2.0,0,0,76970,,,,,,,,,,,,,,,,,,,,,,,,,,,,,,,,,,,,,,76.5,3.5,,,,,,
94,,feedback,,html-keyboard-response,94,64333,0.0-1.0-19.0-0.0-3.0-0.0,0,0,76970,,,,,,17.0,,,,,,,,,,,,,,,,,,,,,,,,,,,,,,,,77.5,1.0,,,,,,
95,,iti,,html-keyboard-response,95,64438,0.0-1.0-19.0-0.0-5.0,0,0,76970,,,,,,,,,,,,,,,,,,,,,,,,,,,,,,,,,,,,,,78.5,1.0,,,,,,
96,,choice,,html-keyboard-response,96,65152,0.0-1.0-20.0-0.0-0.0,0,0,76970,,711.0,,,68.0,18.0,18.0,1500.0,1000.0,0.0,1.0,0.0,60-80,,0.0,baby carriage,hammer,60.0,80.0,baby carriage5,hammer8,80.0,80.0,Baby_Stroller.jpg,ct1006_hammer.jpg,/static/Category_learning/Stimuli/Experimental_stims/baby carriage/Baby_Stroller.jpg,/static/Category_learning/Stimuli/Experimental_stims/hammer/ct1006_hammer.jpg,1.0,baby carriage,hammer,60.0,80.0,baby carriage5,hammer8,80.0,80.0,0.0,79.211,0.711,,,,,,
97,,confirmation,,html-keyboard-response,97,65947,0.0-1.0-20.0-0.0-1.0-0.0,0,0,76970,,,,,,18.0,,,,,,,,,,,,,,,,,,,,,,,,,,,,,,,,80.0,0.789,,,,,,
98,,isi,,html-keyboard-response,98,66052,0.0-1.0-20.0-0.0-2.0,0,0,76970,,,,,,,,,,,,,,,,,,,,,,,,,,,,,,,,,,,,,,81.5,1.5,,,,,,
99,,feedback,,html-keyboard-response,99,67059,0.0-1.0-20.0-0.0-3.0-0.0,0,0,76970,,,,,,18.0,,,,,,,,,,,,,,,,,,,,,,,,,,,,,,,,82.5,1.0,,,,,,
100,,iti,,html-keyboard-response,100,67164,0.0-1.0-20.0-0.0-5.0,0,0,76970,,,,,,,,,,,,,,,,,,,,,,,,,,,,,,,,,,,,,,83.5,1.0,,,,,,
101,,choice,,html-keyboard-response,101,67762,0.0-1.0-21.0-0.0-0.0,0,0,76970,,595.0,,,68.0,19.0,19.0,1500.0,3500.0,0.0,1.0,0.0,60-60,,,fan,flashlight,60.0,60.0,fan6,flashlight1,60.0,40.0,30090.fpx.jpg,Graphite3D.jpg,/static/Category_learning/Stimuli/Experimental_stims/fan/30090.fpx.jpg,/static/Category_learning/Stimuli/Experimental_stims/flashlight/Graphite3D.jpg,1.0,fan,flashlight,60.0,60.0,fan6,flashlight1,60.0,40.0,0.0,84.095,0.595,,,,,,
102,,confirmation,,html-keyboard-response,102,68670,0.0-1.0-21.0-0.0-1.0-0.0,0,0,76970,,,,,,19.0,,,,,,,,,,,,,,,,,,,,,,,,,,,,,,,,85.0,0.905,,,,,,
103,,isi,,html-keyboard-response,103,68777,0.0-1.0-21.0-0.0-2.0,0,0,76970,,,,,,,,,,,,,,,,,,,,,,,,,,,,,,,,,,,,,,86.5,1.5,,,,,,
104,,feedback,,html-keyboard-response,104,69780,0.0-1.0-21.0-0.0-3.0-0.0,0,0,76970,,,,,,19.0,,,,,,,,,,,,,,,,,,,,,,,,,,,,,,,,87.5,1.0,,,,,,
105,,iti,,html-keyboard-response,105,69885,0.0-1.0-21.0-0.0-5.0,0,0,76970,,,,,,,,,,,,,,,,,,,,,,,,,,,,,,,,,,,,,,91.0,3.5,,,,,,
106,,choice,,html-keyboard-response,106,70801,0.0-1.0-22.0-0.0-0.0,0,0,76970,,913.0,,,68.0,20.0,20.0,1000.0,1000.0,0.0,1.0,0.0,20-80,,1.0,frame,patio lounge chair,80.0,20.0,frame11,patio lounge chair9,100.0,20.0,AFRAME139.jpg,43-3.jpg,/static/Category_learning/Stimuli/Experimental_stims/frame/AFRAME139.jpg,/static/Category_learning/Stimuli/Experimental_stims/patio lounge chair/43-3.jpg,1.0,frame,patio lounge chair,80.0,20.0,frame11,patio lounge chair9,100.0,20.0,0.0,91.913,0.9129999999999999,,,,,,
107,,confirmation,,html-keyboard-response,107,71392,0.0-1.0-22.0-0.0-1.0-0.0,0,0,76970,,,,,,20.0,,,,,,,,,,,,,,,,,,,,,,,,,,,,,,,,92.5,0.5870000000000001,,,,,,
108,,isi,,html-keyboard-response,108,71495,0.0-1.0-22.0-0.0-2.0,0,0,76970,,,,,,,,,,,,,,,,,,,,,,,,,,,,,,,,,,,,,,93.5,1.0,,,,,,
109,,feedback,,html-keyboard-response,109,72501,0.0-1.0-22.0-0.0-3.0-0.0,0,0,76970,,,,,,20.0,,,,,,,,,,,,,,,,,,,,,,,,,,,,,,,,94.5,1.0,,,,,,
110,,iti,,html-keyboard-response,110,72603,0.0-1.0-22.0-0.0-5.0,0,0,76970,,,,,,,,,,,,,,,,,,,,,,,,,,,,,,,,,,,,,,95.5,1.0,,,,,,
111,,choice,,html-keyboard-response,111,73866,0.0-1.0-23.0-0.0-0.0,0,0,76970,,1260.0,,,75.0,21.0,21.0,2000.0,1000.0,0.0,1.0,0.0,40-80,,0.0,telescope,license plate,40.0,80.0,telescope11,license plate14,40.0,100.0,digimarc.ms03.jpg,fl-hel-bel.jpg,/static/Category_learning/Stimuli/Experimental_stims/telescope/digimarc.ms03.jpg,/static/Category_learning/Stimuli/Experimental_stims/license plate/fl-hel-bel.jpg,0.0,license plate,telescope,80.0,40.0,license plate14,telescope11,100.0,40.0,0.0,96.76,1.26,,,,,,
112,,confirmation,,html-keyboard-response,112,74115,0.0-1.0-23.0-0.0-1.0-0.0,0,0,76970,,,,,,21.0,,,,,,,,,,,,,,,,,,,,,,,,,,,,,,,,97.0,0.24,,,,,,
113,,isi,,html-keyboard-response,113,74218,0.0-1.0-23.0-0.0-2.0,0,0,76970,,,,,,,,,,,,,,,,,,,,,,,,,,,,,,,,,,,,,,99.0,2.0,,,,,,
114,,feedback,,html-keyboard-response,114,75224,0.0-1.0-23.0-0.0-3.0-0.0,0,0,76970,,,,,,21.0,,,,,,,,,,,,,,,,,,,,,,,,,,,,,,,,100.0,1.0,,,,,,
115,,iti,,html-keyboard-response,115,75326,0.0-1.0-23.0-0.0-5.0,0,0,76970,,,,,,,,,,,,,,,,,,,,,,,,,,,,,,,,,,,,,,101.0,1.0,,,,,,
116,,choice,,html-keyboard-response,116,75838,0.0-1.0-24.0-0.0-0.0,0,0,76970,,509.0,,,68.0,22.0,22.0,1000.0,1500.0,0.0,1.0,1.0,20-20,1.0,,necklace,necklace,20.0,20.0,necklace15,necklace1,40.0,0.0,necklascenew04.jpg,26443173.thl.jpg,/static/Category_learning/Stimuli/Experimental_stims/necklace/necklascenew04.jpg,/static/Category_learning/Stimuli/Experimental_stims/necklace/26443173.thl.jpg,1.0,necklace,necklace,20.0,20.0,necklace15,necklace1,40.0,0.0,0.0,101.509,0.509,,,,,,
117,,confirmation,,html-keyboard-response,117,76834,0.0-1.0-24.0-0.0-1.0-0.0,0,0,76970,,,,,,22.0,,,,,,,,,,,,,,,,,,,,,,,,,,,,,,,,102.5,0.991,,,,,,
118,,isi,,html-keyboard-response,118,76942,0.0-1.0-24.0-0.0-2.0,0,0,76970,,,,,,,,,,,,,,,,,,,,,,,,,,,,,,,,,,,,,,103.5,1.0,,,,,,
119,,feedback,,html-keyboard-response,119,77948,0.0-1.0-24.0-0.0-3.0-0.0,0,0,76970,,,,,,22.0,,,,,,,,,,,,,,,,,,,,,,,,,,,,,,,,104.5,1.0,,,,,,
120,,iti,,html-keyboard-response,120,78052,0.0-1.0-24.0-0.0-5.0,0,0,76970,,,,,,,,,,,,,,,,,,,,,,,,,,,,,,,,,,,,,,106.0,1.5,,,,,,
121,,choice,,html-keyboard-response,121,78759,0.0-1.0-25.0-0.0-0.0,0,0,76970,,704.0,,,68.0,23.0,23.0,1000.0,1500.0,0.0,1.0,0.0,40-80,,1.0,license plate,train,80.0,40.0,license plate9,train6,60.0,20.0,nm-dhg089.jpg,train9.jpg,/static/Category_learning/Stimuli/Experimental_stims/license plate/nm-dhg089.jpg,/static/Category_learning/Stimuli/Experimental_stims/train/train9.jpg,1.0,license plate,train,80.0,40.0,license plate9,train6,60.0,20.0,0.0,106.704,0.7040000000000001,,,,,,
122,,confirmation,,html-keyboard-response,122,79563,0.0-1.0-25.0-0.0-1.0-0.0,0,0,76970,,,,,,23.0,,,,,,,,,,,,,,,,,,,,,,,,,,,,,,,,107.5,0.7959999999999999,,,,,,
123,,isi,,html-keyboard-response,123,79666,0.0-1.0-25.0-0.0-2.0,0,0,76970,,,,,,,,,,,,,,,,,,,,,,,,,,,,,,,,,,,,,,108.5,1.0,,,,,,
124,,feedback,,html-keyboard-response,124,80669,0.0-1.0-25.0-0.0-3.0-0.0,0,0,76970,,,,,,23.0,,,,,,,,,,,,,,,,,,,,,,,,,,,,,,,,109.5,1.0,,,,,,
125,,iti,,html-keyboard-response,125,80772,0.0-1.0-25.0-0.0-5.0,0,0,76970,,,,,,,,,,,,,,,,,,,,,,,,,,,,,,,,,,,,,,111.0,1.5,,,,,,
126,,choice,,html-keyboard-response,126,81601,0.0-1.0-26.0-0.0-0.0,0,0,76970,,826.0,,,75.0,24.0,24.0,2000.0,1500.0,0.0,1.0,1.0,80-80,1.0,,license plate,license plate,80.0,80.0,license plate14,license plate9,100.0,60.0,fl-hel-bel.jpg,nm-dhg089.jpg,/static/Category_learning/Stimuli/Experimental_stims/license plate/fl-hel-bel.jpg,/static/Category_learning/Stimuli/Experimental_stims/license plate/nm-dhg089.jpg,0.0,license plate,license plate,80.0,80.0,license plate9,license plate14,60.0,100.0,0.0,111.82600000000001,0.826,,,,,,
127,,confirmation,,html-keyboard-response,127,82279,0.0-1.0-26.0-0.0-1.0-0.0,0,0,76970,,,,,,24.0,,,,,,,,,,,,,,,,,,,,,,,,,,,,,,,,112.5,0.674,,,,,,
128,,isi,,html-keyboard-response,128,82384,0.0-1.0-26.0-0.0-2.0,0,0,76970,,,,,,,,,,,,,,,,,,,,,,,,,,,,,,,,,,,,,,114.5,2.0,,,,,,
129,,feedback,,html-keyboard-response,129,83392,0.0-1.0-26.0-0.0-3.0-0.0,0,0,76970,,,,,,24.0,,,,,,,,,,,,,,,,,,,,,,,,,,,,,,,,115.5,1.0,,,,,,
130,,iti,,html-keyboard-response,130,83496,0.0-1.0-26.0-0.0-5.0,0,0,76970,,,,,,,,,,,,,,,,,,,,,,,,,,,,,,,,,,,,,,117.0,1.5,,,,,,
131,,choice,,html-keyboard-response,131,84207,0.0-1.0-27.0-0.0-0.0,0,0,76970,,708.0,,,68.0,25.0,25.0,1500.0,2000.0,0.0,1.0,0.0,40-60,,0.0,trumpet,flashlight,40.0,60.0,trumpet4,flashlight2,20.0,60.0,JUPITER+JTR1000S.jpg,AV-9 No Battery Flashlight.jpg,/static/Category_learning/Stimuli/Experimental_stims/trumpet/JUPITER+JTR1000S.jpg,/static/Category_learning/Stimuli/Experimental_stims/flashlight/AV-9 No Battery Flashlight.jpg,1.0,trumpet,flashlight,40.0,60.0,trumpet4,flashlight2,20.0,60.0,0.0,117.708,0.708,,,,,,
132,,confirmation,,html-keyboard-response,132,85004,0.0-1.0-27.0-0.0-1.0-0.0,0,0,76970,,,,,,25.0,,,,,,,,,,,,,,,,,,,,,,,,,,,,,,,,118.5,0.792,,,,,,
133,,isi,,html-keyboard-response,133,85112,0.0-1.0-27.0-0.0-2.0,0,0,76970,,,,,,,,,,,,,,,,,,,,,,,,,,,,,,,,,,,,,,120.0,1.5,,,,,,
134,,feedback,,html-keyboard-response,134,86116,0.0-1.0-27.0-0.0-3.0-0.0,0,0,76970,,,,,,25.0,,,,,,,,,,,,,,,,,,,,,,,,,,,,,,,,121.0,1.0,,,,,,
135,,iti,,html-keyboard-response,135,86223,0.0-1.0-27.0-0.0-5.0,0,0,76970,,,,,,,,,,,,,,,,,,,,,,,,,,,,,,,,,,,,,,123.0,2.0,,,,,,
136,,choice,,html-keyboard-response,136,86755,0.0-1.0-28.0-0.0-0.0,0,0,76970,,529.0,,,68.0,26.0,26.0,1500.0,3000.0,0.0,1.0,0.0,40-60,,0.0,stool,bowl,40.0,60.0,stool9,bowl8,40.0,40.0,ASTOOL7.jpg,ASLVBOWL.jpg,/static/Category_learning/Stimuli/Experimental_stims/stool/ASTOOL7.jpg,/static/Category_learning/Stimuli/Experimental_stims/bowl/ASLVBOWL.jpg,1.0,stool,bowl,40.0,60.0,stool9,bowl8,40.0,40.0,0.0,123.529,0.529,,,,,,
137,,confirmation,,html-keyboard-response,137,87729,0.0-1.0-28.0-0.0-1.0-0.0,0,0,76970,,,,,,26.0,,,,,,,,,,,,,,,,,,,,,,,,,,,,,,,,124.5,0.971,,,,,,
138,,isi,,html-keyboard-response,138,87835,0.0-1.0-28.0-0.0-2.0,0,0,76970,,,,,,,,,,,,,,,,,,,,,,,,,,,,,,,,,,,,,,126.0,1.5,,,,,,
139,,feedback,,html-keyboard-response,139,88838,0.0-1.0-28.0-0.0-3.0-0.0,0,0,76970,,,,,,26.0,,,,,,,,,,,,,,,,,,,,,,,,,,,,,,,,127.0,1.0,,,,,,
140,,iti,,html-keyboard-response,140,88945,0.0-1.0-28.0-0.0-5.0,0,0,76970,,,,,,,,,,,,,,,,,,,,,,,,,,,,,,,,,,,,,,130.0,3.0,,,,,,
141,,choice,,html-keyboard-response,141,89190,0.0-1.0-29.0-0.0-0.0,0,0,76970,,241.0,,,68.0,27.0,27.0,1000.0,1000.0,0.0,1.0,0.0,80-80,,,key chain,lipstick,80.0,80.0,key chain8,lipstick5,100.0,80.0,Keychain01.jpg,P35719_hero.jpg,/static/Category_learning/Stimuli/Experimental_stims/key chain/Keychain01.jpg,/static/Category_learning/Stimuli/Experimental_stims/lipstick/P35719_hero.jpg,1.0,key chain,lipstick,80.0,80.0,key chain8,lipstick5,100.0,80.0,0.0,130.241,0.24100000000000002,,,,,,
142,,confirmation,,html-keyboard-response,142,90453,0.0-1.0-29.0-0.0-1.0-0.0,0,0,76970,,,,,,27.0,,,,,,,,,,,,,,,,,,,,,,,,,,,,,,,,131.5,1.2590000000000001,,,,,,
143,,isi,,html-keyboard-response,143,90558,0.0-1.0-29.0-0.0-2.0,0,0,76970,,,,,,,,,,,,,,,,,,,,,,,,,,,,,,,,,,,,,,132.5,1.0,,,,,,
144,,feedback,,html-keyboard-response,144,91563,0.0-1.0-29.0-0.0-3.0-0.0,0,0,76970,,,,,,27.0,,,,,,,,,,,,,,,,,,,,,,,,,,,,,,,,133.5,1.0,,,,,,
145,,iti,,html-keyboard-response,145,91668,0.0-1.0-29.0-0.0-5.0,0,0,76970,,,,,,,,,,,,,,,,,,,,,,,,,,,,,,,,,,,,,,134.5,1.0,,,,,,
146,,choice,,html-keyboard-response,146,91832,0.0-1.0-30.0-0.0-0.0,0,0,76970,,161.0,,,75.0,28.0,28.0,3500.0,1500.0,0.0,1.0,0.0,60-60,,,bench,desk,60.0,60.0,bench7,desk5,40.0,80.0,ACONBENCH.jpg,ADESK6.jpg,/static/Category_learning/Stimuli/Experimental_stims/bench/ACONBENCH.jpg,/static/Category_learning/Stimuli/Experimental_stims/desk/ADESK6.jpg,0.0,desk,bench,60.0,60.0,desk5,bench7,80.0,40.0,0.0,134.661,0.161,,,,,,
147,,confirmation,,html-keyboard-response,147,93178,0.0-1.0-30.0-0.0-1.0-0.0,0,0,76970,,,,,,28.0,,,,,,,,,,,,,,,,,,,,,,,,,,,,,,,,136.0,1.339,,,,,,
148,,isi,,html-keyboard-response,148,93280,0.0-1.0-30.0-0.0-2.0,0,0,76970,,,,,,,,,,,,,,,,,,,,,,,,,,,,,,,,,,,,,,139.5,3.5,,,,,,
149,,feedback,,html-keyboard-response,149,94287,0.0-1.0-30.0-0.0-3.0-0.0,0,0,76970,,,,,,28.0,,,,,,,,,,,,,,,,,,,,,,,,,,,,,,,,140.5,1.0,,,,,,
150,,iti,,html-keyboard-response,150,94392,0.0-1.0-30.0-0.0-5.0,0,0,76970,,,,,,,,,,,,,,,,,,,,,,,,,,,,,,,,,,,,,,142.0,1.5,,,,,,
151,,choice,,html-keyboard-response,151,94659,0.0-1.0-31.0-0.0-0.0,0,0,76970,,264.0,,,68.0,29.0,29.0,2000.0,1000.0,0.0,1.0,1.0,60-60,0.0,,baby carriage,bench,60.0,60.0,baby carriage5,bench8,80.0,80.0,Baby_Stroller.jpg,APARKBE14.jpg,/static/Category_learning/Stimuli/Experimental_stims/baby carriage/Baby_Stroller.jpg,/static/Category_learning/Stimuli/Experimental_stims/bench/APARKBE14.jpg,1.0,baby carriage,bench,60.0,60.0,baby carriage5,bench8,80.0,80.0,0.0,142.264,0.264,,,,,,
152,,confirmation,,html-keyboard-response,152,95899,0.0-1.0-31.0-0.0-1.0-0.0,0,0,76970,,,,,,29.0,,,,,,,,,,,,,,,,,,,,,,,,,,,,,,,,143.5,1.236,,,,,,
153,,isi,,html-keyboard-response,153,96004,0.0-1.0-31.0-0.0-2.0,0,0,76970,,,,,,,,,,,,,,,,,,,,,,,,,,,,,,,,,,,,,,145.5,2.0,,,,,,
154,,feedback,,html-keyboard-response,154,97009,0.0-1.0-31.0-0.0-3.0-0.0,0,0,76970,,,,,,29.0,,,,,,,,,,,,,,,,,,,,,,,,,,,,,,,,146.5,1.0,,,,,,
155,,iti,,html-keyboard-response,155,97114,0.0-1.0-31.0-0.0-5.0,0,0,76970,,,,,,,,,,,,,,,,,,,,,,,,,,,,,,,,,,,,,,147.5,1.0,,,,,,
156,,choice,,html-keyboard-response,156,97557,0.0-1.0-32.0-0.0-0.0,0,0,76970,,440.0,,,68.0,30.0,30.0,2000.0,3500.0,0.0,1.0,0.0,40-60,,0.0,stool,dresser,40.0,60.0,stool10,dresser12,60.0,60.0,ASTOOL26.jpg,ADRESSE58.jpg,/static/Category_learning/Stimuli/Experimental_stims/stool/ASTOOL26.jpg,/static/Category_learning/Stimuli/Experimental_stims/dresser/ADRESSE58.jpg,1.0,stool,dresser,40.0,60.0,stool10,dresser12,60.0,60.0,0.0,147.94,0.44,,,,,,
157,,confirmation,,html-keyboard-response,157,98625,0.0-1.0-32.0-0.0-1.0-0.0,0,0,76970,,,,,,30.0,,,,,,,,,,,,,,,,,,,,,,,,,,,,,,,,149.0,1.06,,,,,,
158,,isi,,html-keyboard-response,158,98728,0.0-1.0-32.0-0.0-2.0,0,0,76970,,,,,,,,,,,,,,,,,,,,,,,,,,,,,,,,,,,,,,151.0,2.0,,,,,,
159,,feedback,,html-keyboard-response,159,99734,0.0-1.0-32.0-0.0-3.0-0.0,0,0,76970,,,,,,30.0,,,,,,,,,,,,,,,,,,,,,,,,,,,,,,,,152.0,1.0,,,,,,
160,,iti,,html-keyboard-response,160,99837,0.0-1.0-32.0-0.0-5.0,0,0,76970,,,,,,,,,,,,,,,,,,,,,,,,,,,,,,,,,,,,,,155.5,3.5,,,,,,
161,,choice,,html-keyboard-response,161,100912,0.0-1.0-33.0-0.0-0.0,0,0,76970,,1071.0,,,68.0,31.0,31.0,2000.0,2000.0,0.0,1.0,1.0,40-40,1.0,,stool,stool,40.0,40.0,stool10,stool9,60.0,40.0,ASTOOL26.jpg,ASTOOL7.jpg,/static/Category_learning/Stimuli/Experimental_stims/stool/ASTOOL26.jpg,/static/Category_learning/Stimuli/Experimental_stims/stool/ASTOOL7.jpg,1.0,stool,stool,40.0,40.0,stool10,stool9,60.0,40.0,0.0,156.571,1.071,,,,,,
162,,confirmation,,html-keyboard-response,162,101344,0.0-1.0-33.0-0.0-1.0-0.0,0,0,76970,,,,,,31.0,,,,,,,,,,,,,,,,,,,,,,,,,,,,,,,,157.0,0.429,,,,,,
163,,isi,,html-keyboard-response,163,101449,0.0-1.0-33.0-0.0-2.0,0,0,76970,,,,,,,,,,,,,,,,,,,,,,,,,,,,,,,,,,,,,,159.0,2.0,,,,,,
164,,feedback,,html-keyboard-response,164,102453,0.0-1.0-33.0-0.0-3.0-0.0,0,0,76970,,,,,,31.0,,,,,,,,,,,,,,,,,,,,,,,,,,,,,,,,160.0,1.0,,,,,,
165,,iti,,html-keyboard-response,165,102557,0.0-1.0-33.0-0.0-5.0,0,0,76970,,,,,,,,,,,,,,,,,,,,,,,,,,,,,,,,,,,,,,162.0,2.0,,,,,,
166,,choice,,html-keyboard-response,166,104065,0.0-1.0-34.0-0.0-0.0,0,0,76970,,,,,,32.0,32.0,1500.0,2000.0,0.0,1.0,0.0,40-40,,,stool,tape,40.0,40.0,stool8,tape9,60.0,40.0,ASTOOL33.jpg,desk tape disp.jpg,/static/Category_learning/Stimuli/Experimental_stims/stool/ASTOOL33.jpg,/static/Category_learning/Stimuli/Experimental_stims/tape/desk tape disp.jpg,,,,,,,,,,1.0,163.5,1.5,,,,,,
167,,isi,,html-keyboard-response,167,104172,0.0-1.0-34.0-0.0-2.0,0,0,76970,,,,,,,,,,,,,,,,,,,,,,,,,,,,,,,,,,,,,,165.0,1.5,,,,,,
168,,no_response,,html-keyboard-response,168,105175,0.0-1.0-34.0-0.0-4.0-0.0,0,0,76970,,,,,,,,,,,,,,,,,,,,,,,,,,,,,,,,,,,,,,166.0,1.0,,,,,,
169,,iti,,html-keyboard-response,169,105297,0.0-1.0-34.0-0.0-5.0,0,0,76970,,,,,,,,,,,,,,,,,,,,,,,,,,,,,,,,,,,,,,168.0,2.0,,,,,,
170,,choice,,html-keyboard-response,170,105642,0.0-1.0-34.0-0.1-0.1,0,0,76970,,341.0,,,68.0,32.0,32.0,1500.0,2000.0,0.0,1.0,0.0,40-40,,,stool,tape,40.0,40.0,stool8,tape9,60.0,40.0,ASTOOL33.jpg,desk tape disp.jpg,/static/Category_learning/Stimuli/Experimental_stims/stool/ASTOOL33.jpg,/static/Category_learning/Stimuli/Experimental_stims/tape/desk tape disp.jpg,1.0,stool,tape,40.0,40.0,stool8,tape9,60.0,40.0,0.0,168.34099999999998,0.341,,,,,,
171,,confirmation,,html-keyboard-response,171,106804,0.0-1.0-34.0-0.1-1.1-0.1,0,0,76970,,,,,,32.0,,,,,,,,,,,,,,,,,,,,,,,,,,,,,,,,169.5,1.159,,,,,,
172,,isi,,html-keyboard-response,172,106910,0.0-1.0-34.0-0.1-2.1,0,0,76970,,,,,,,,,,,,,,,,,,,,,,,,,,,,,,,,,,,,,,171.5,2.0,,,,,,
173,,feedback,,html-keyboard-response,173,107915,0.0-1.0-34.0-0.1-3.1-0.1,0,0,76970,,,,,,32.0,,,,,,,,,,,,,,,,,,,,,,,,,,,,,,,,172.5,1.0,,,,,,
174,,iti,,html-keyboard-response,174,108018,0.0-1.0-34.0-0.1-5.1,0,0,76970,,,,,,,,,,,,,,,,,,,,,,,,,,,,,,,,,,,,,,174.0,1.5,,,,,,
175,,choice,,html-keyboard-response,175,109526,0.0-1.0-35.0-0.0-0.0,0,0,76970,,,,,,33.0,33.0,1000.0,3000.0,0.0,1.0,0.0,40-40,,,yarn,tent,40.0,40.0,yarn10,tent5,60.0,60.0,revelation-yarn.jpg,Dome Tentnb87r67.jpg,/static/Category_learning/Stimuli/Experimental_stims/yarn/revelation-yarn.jpg,/static/Category_learning/Stimuli/Experimental_stims/tent/Dome Tentnb87r67.jpg,,,,,,,,,,1.0,175.5,1.5,,,,,,
176,,isi,,html-keyboard-response,176,109632,0.0-1.0-35.0-0.0-2.0,0,0,76970,,,,,,,,,,,,,,,,,,,,,,,,,,,,,,,,,,,,,,176.5,1.0,,,,,,
177,,no_response,,html-keyboard-response,177,110638,0.0-1.0-35.0-0.0-4.0-0.0,0,0,76970,,,,,,,,,,,,,,,,,,,,,,,,,,,,,,,,,,,,,,177.5,1.0,,,,,,
178,,iti,,html-keyboard-response,178,110759,0.0-1.0-35.0-0.0-5.0,0,0,76970,,,,,,,,,,,,,,,,,,,,,,,,,,,,,,,,,,,,,,180.5,3.0,,,,,,
179,,choice,,html-keyboard-response,179,111099,0.0-1.0-35.0-0.1-0.1,0,0,76970,,336.0,,,68.0,33.0,33.0,1000.0,3000.0,0.0,1.0,0.0,40-40,,,yarn,tent,40.0,40.0,yarn10,tent5,60.0,60.0,revelation-yarn.jpg,Dome Tentnb87r67.jpg,/static/Category_learning/Stimuli/Experimental_stims/yarn/revelation-yarn.jpg,/static/Category_learning/Stimuli/Experimental_stims/tent/Dome Tentnb87r67.jpg,1.0,yarn,tent,40.0,40.0,yarn10,tent5,60.0,60.0,0.0,180.83599999999998,0.336,,,,,,
180,,confirmation,,html-keyboard-response,180,112267,0.0-1.0-35.0-0.1-1.1-0.1,0,0,76970,,,,,,33.0,,,,,,,,,,,,,,,,,,,,,,,,,,,,,,,,182.0,1.1640000000000001,,,,,,
181,,isi,,html-keyboard-response,181,112372,0.0-1.0-35.0-0.1-2.1,0,0,76970,,,,,,,,,,,,,,,,,,,,,,,,,,,,,,,,,,,,,,183.0,1.0,,,,,,
182,,feedback,,html-keyboard-response,182,113377,0.0-1.0-35.0-0.1-3.1-0.1,0,0,76970,,,,,,33.0,,,,,,,,,,,,,,,,,,,,,,,,,,,,,,,,184.0,1.0,,,,,,
183,,iti,,html-keyboard-response,183,113483,0.0-1.0-35.0-0.1-5.1,0,0,76970,,,,,,,,,,,,,,,,,,,,,,,,,,,,,,,,,,,,,,186.0,2.0,,,,,,
184,,choice,,html-keyboard-response,184,113851,0.0-1.0-36.0-0.0-0.0,0,0,76970,,364.0,,,68.0,34.0,34.0,1000.0,1500.0,0.0,1.0,0.0,20-20,,,pen,nail polish,20.0,20.0,pen2,nail polish3,20.0,40.0,Montblanc-Blu-Starwalker-BP copy.jpg,327636.jpg,/static/Category_learning/Stimuli/Experimental_stims/pen/Montblanc-Blu-Starwalker-BP copy.jpg,/static/Category_learning/Stimuli/Experimental_stims/nail polish/327636.jpg,1.0,pen,nail polish,20.0,20.0,pen2,nail polish3,20.0,40.0,0.0,186.364,0.364,,,,,,
185,,confirmation,,html-keyboard-response,185,114995,0.0-1.0-36.0-0.0-1.0-0.0,0,0,76970,,,,,,34.0,,,,,,,,,,,,,,,,,,,,,,,,,,,,,,,,187.5,1.136,,,,,,
186,,isi,,html-keyboard-response,186,115102,0.0-1.0-36.0-0.0-2.0,0,0,76970,,,,,,,,,,,,,,,,,,,,,,,,,,,,,,,,,,,,,,188.5,1.0,,,,,,
187,,feedback,,html-keyboard-response,187,116108,0.0-1.0-36.0-0.0-3.0-0.0,0,0,76970,,,,,,34.0,,,,,,,,,,,,,,,,,,,,,,,,,,,,,,,,189.5,1.0,,,,,,
188,,iti,,html-keyboard-response,188,116215,0.0-1.0-36.0-0.0-5.0,0,0,76970,,,,,,,,,,,,,,,,,,,,,,,,,,,,,,,,,,,,,,191.0,1.5,,,,,,
189,,choice,,html-keyboard-response,189,116693,0.0-1.0-37.0-0.0-0.0,0,0,76970,,475.0,,,68.0,35.0,35.0,1500.0,1000.0,0.0,1.0,0.0,40-60,,0.0,stool,dresser,40.0,60.0,stool2,dresser14,20.0,60.0,ASTOOL46.jpg,Adressertabl3.jpg,/static/Category_learning/Stimuli/Experimental_stims/stool/ASTOOL46.jpg,/static/Category_learning/Stimuli/Experimental_stims/dresser/Adressertabl3.jpg,1.0,stool,dresser,40.0,60.0,stool2,dresser14,20.0,60.0,0.0,191.475,0.475,,,,,,
190,,confirmation,,html-keyboard-response,190,117723,0.0-1.0-37.0-0.0-1.0-0.0,0,0,76970,,,,,,35.0,,,,,,,,,,,,,,,,,,,,,,,,,,,,,,,,192.5,1.025,,,,,,
191,,isi,,html-keyboard-response,191,117830,0.0-1.0-37.0-0.0-2.0,0,0,76970,,,,,,,,,,,,,,,,,,,,,,,,,,,,,,,,,,,,,,194.0,1.5,,,,,,
192,,feedback,,html-keyboard-response,192,118834,0.0-1.0-37.0-0.0-3.0-0.0,0,0,76970,,,,,,35.0,,,,,,,,,,,,,,,,,,,,,,,,,,,,,,,,195.0,1.0,,,,,,
193,,iti,,html-keyboard-response,193,118940,0.0-1.0-37.0-0.0-5.0,0,0,76970,,,,,,,,,,,,,,,,,,,,,,,,,,,,,,,,,,,,,,196.0,1.0,,,,,,
194,,choice,,html-keyboard-response,194,119238,0.0-1.0-38.0-0.0-0.0,0,0,76970,,295.0,,,68.0,36.0,36.0,1500.0,1000.0,0.0,1.0,0.0,20-80,,0.0,necklace,motorcycle,20.0,80.0,necklace2,motorcycle2,20.0,100.0,Anecklace7.jpg,motorcycle33.jpg,/static/Category_learning/Stimuli/Experimental_stims/necklace/Anecklace7.jpg,/static/Category_learning/Stimuli/Experimental_stims/motorcycle/motorcycle33.jpg,1.0,necklace,motorcycle,20.0,80.0,necklace2,motorcycle2,20.0,100.0,0.0,196.295,0.295,,,,,,
195,,confirmation,,html-keyboard-response,195,120448,0.0-1.0-38.0-0.0-1.0-0.0,0,0,76970,,,,,,36.0,,,,,,,,,,,,,,,,,,,,,,,,,,,,,,,,197.5,1.205,,,,,,
196,,isi,,html-keyboard-response,196,120553,0.0-1.0-38.0-0.0-2.0,0,0,76970,,,,,,,,,,,,,,,,,,,,,,,,,,,,,,,,,,,,,,199.0,1.5,,,,,,
197,,feedback,,html-keyboard-response,197,121558,0.0-1.0-38.0-0.0-3.0-0.0,0,0,76970,,,,,,36.0,,,,,,,,,,,,,,,,,,,,,,,,,,,,,,,,200.0,1.0,,,,,,
198,,iti,,html-keyboard-response,198,121666,0.0-1.0-38.0-0.0-5.0,0,0,76970,,,,,,,,,,,,,,,,,,,,,,,,,,,,,,,,,,,,,,201.0,1.0,,,,,,
199,,choice,,html-keyboard-response,199,122032,0.0-1.0-39.0-0.0-0.0,0,0,76970,,363.0,,,68.0,37.0,37.0,1000.0,1000.0,0.0,1.0,1.0,40-40,1.0,,stool,stool,40.0,40.0,stool8,stool2,60.0,20.0,ASTOOL33.jpg,ASTOOL46.jpg,/static/Category_learning/Stimuli/Experimental_stims/stool/ASTOOL33.jpg,/static/Category_learning/Stimuli/Experimental_stims/stool/ASTOOL46.jpg,1.0,stool,stool,40.0,40.0,stool8,stool2,60.0,20.0,0.0,201.363,0.363,,,,,,
200,,confirmation,,html-keyboard-response,200,123174,0.0-1.0-39.0-0.0-1.0-0.0,0,0,76970,,,,,,37.0,,,,,,,,,,,,,,,,,,,,,,,,,,,,,,,,202.5,1.137,,,,,,
201,,isi,,html-keyboard-response,201,123280,0.0-1.0-39.0-0.0-2.0,0,0,76970,,,,,,,,,,,,,,,,,,,,,,,,,,,,,,,,,,,,,,203.5,1.0,,,,,,
202,,feedback,,html-keyboard-response,202,124285,0.0-1.0-39.0-0.0-3.0-0.0,0,0,76970,,,,,,37.0,,,,,,,,,,,,,,,,,,,,,,,,,,,,,,,,204.5,1.0,,,,,,
203,,iti,,html-keyboard-response,203,124388,0.0-1.0-39.0-0.0-5.0,0,0,76970,,,,,,,,,,,,,,,,,,,,,,,,,,,,,,,,,,,,,,205.5,1.0,,,,,,
204,,choice,,html-keyboard-response,204,124774,0.0-1.0-40.0-0.0-0.0,0,0,76970,,383.0,,,75.0,38.0,38.0,3000.0,1000.0,0.0,1.0,0.0,20-60,,0.0,sofa,bongo,20.0,60.0,sofa9,bongo12,20.0,40.0,ALOVSEAT9.jpg,26686609.thl.jpg,/static/Category_learning/Stimuli/Experimental_stims/sofa/ALOVSEAT9.jpg,/static/Category_learning/Stimuli/Experimental_stims/bongo/26686609.thl.jpg,0.0,bongo,sofa,60.0,20.0,bongo12,sofa9,40.0,20.0,0.0,205.88299999999998,0.38299999999999995,,,,,,
205,,confirmation,,html-keyboard-response,205,125896,0.0-1.0-40.0-0.0-1.0-0.0,0,0,76970,,,,,,38.0,,,,,,,,,,,,,,,,,,,,,,,,,,,,,,,,207.0,1.117,,,,,,
206,,isi,,html-keyboard-response,206,126002,0.0-1.0-40.0-0.0-2.0,0,0,76970,,,,,,,,,,,,,,,,,,,,,,,,,,,,,,,,,,,,,,210.0,3.0,,,,,,
207,,feedback,,html-keyboard-response,207,127007,0.0-1.0-40.0-0.0-3.0-0.0,0,0,76970,,,,,,38.0,,,,,,,,,,,,,,,,,,,,,,,,,,,,,,,,211.0,1.0,,,,,,
208,,iti,,html-keyboard-response,208,127113,0.0-1.0-40.0-0.0-5.0,0,0,76970,,,,,,,,,,,,,,,,,,,,,,,,,,,,,,,,,,,,,,212.0,1.0,,,,,,
209,,choice,,html-keyboard-response,209,127663,0.0-1.0-41.0-0.0-0.0,0,0,76970,,547.0,,,68.0,39.0,39.0,3000.0,3000.0,0.0,1.0,0.0,20-20,,,patio lounge chair,seashell,20.0,20.0,patio lounge chair14,seashell13,40.0,0.0,2987951.jpg,coquillage22.jpg,/static/Category_learning/Stimuli/Experimental_stims/patio lounge chair/2987951.jpg,/static/Category_learning/Stimuli/Experimental_stims/seashell/coquillage22.jpg,1.0,patio lounge chair,seashell,20.0,20.0,patio lounge chair14,seashell13,40.0,0.0,0.0,212.547,0.547,,,,,,
210,,confirmation,,html-keyboard-response,210,128623,0.0-1.0-41.0-0.0-1.0-0.0,0,0,76970,,,,,,39.0,,,,,,,,,,,,,,,,,,,,,,,,,,,,,,,,213.5,0.953,,,,,,
211,,isi,,html-keyboard-response,211,128729,0.0-1.0-41.0-0.0-2.0,0,0,76970,,,,,,,,,,,,,,,,,,,,,,,,,,,,,,,,,,,,,,216.5,3.0,,,,,,
212,,feedback,,html-keyboard-response,212,129733,0.0-1.0-41.0-0.0-3.0-0.0,0,0,76970,,,,,,39.0,,,,,,,,,,,,,,,,,,,,,,,,,,,,,,,,217.5,1.0,,,,,,
213,,iti,,html-keyboard-response,213,129837,0.0-1.0-41.0-0.0-5.0,0,0,76970,,,,,,,,,,,,,,,,,,,,,,,,,,,,,,,,,,,,,,220.5,3.0,,,,,,
214,,choice,,html-keyboard-response,214,130319,0.0-1.0-42.0-0.0-0.0,0,0,76970,,480.0,,,68.0,40.0,40.0,2000.0,2000.0,0.0,1.0,0.0,60-80,,1.0,makeup compact,flashlight,80.0,60.0,makeup compact9,flashlight10,100.0,80.0,b_102019.jpg,834784_sk_lg.jpg,/static/Category_learning/Stimuli/Experimental_stims/makeup compact/b_102019.jpg,/static/Category_learning/Stimuli/Experimental_stims/flashlight/834784_sk_lg.jpg,1.0,makeup compact,flashlight,80.0,60.0,makeup compact9,flashlight10,100.0,80.0,0.0,220.98,0.48,,,,,,
215,,confirmation,,html-keyboard-response,215,131347,0.0-1.0-42.0-0.0-1.0-0.0,0,0,76970,,,,,,40.0,,,,,,,,,,,,,,,,,,,,,,,,,,,,,,,,222.0,1.02,,,,,,
216,,isi,,html-keyboard-response,216,131452,0.0-1.0-42.0-0.0-2.0,0,0,76970,,,,,,,,,,,,,,,,,,,,,,,,,,,,,,,,,,,,,,224.0,2.0,,,,,,
217,,feedback,,html-keyboard-response,217,132457,0.0-1.0-42.0-0.0-3.0-0.0,0,0,76970,,,,,,40.0,,,,,,,,,,,,,,,,,,,,,,,,,,,,,,,,225.0,1.0,,,,,,
218,,iti,,html-keyboard-response,218,132560,0.0-1.0-42.0-0.0-5.0,0,0,76970,,,,,,,,,,,,,,,,,,,,,,,,,,,,,,,,,,,,,,227.0,2.0,,,,,,
219,,choice,,html-keyboard-response,219,132796,0.0-1.0-43.0-0.0-0.0,0,0,76970,,233.0,,,68.0,41.0,41.0,2000.0,1000.0,0.0,1.0,1.0,20-80,0.0,,microscope,seashell,80.0,20.0,microscope8,seashell7,80.0,20.0,AMICROS21.jpg,seashell34.jpg,/static/Category_learning/Stimuli/Experimental_stims/microscope/AMICROS21.jpg,/static/Category_learning/Stimuli/Experimental_stims/seashell/seashell34.jpg,1.0,microscope,seashell,80.0,20.0,microscope8,seashell7,80.0,20.0,0.0,227.233,0.233,,,,,,
220,,confirmation,,html-keyboard-response,220,134069,0.0-1.0-43.0-0.0-1.0-0.0,0,0,76970,,,,,,41.0,,,,,,,,,,,,,,,,,,,,,,,,,,,,,,,,228.5,1.2670000000000001,,,,,,
221,,isi,,html-keyboard-response,221,134177,0.0-1.0-43.0-0.0-2.0,0,0,76970,,,,,,,,,,,,,,,,,,,,,,,,,,,,,,,,,,,,,,230.5,2.0,,,,,,
222,,feedback,,html-keyboard-response,222,135183,0.0-1.0-43.0-0.0-3.0-0.0,0,0,76970,,,,,,41.0,,,,,,,,,,,,,,,,,,,,,,,,,,,,,,,,231.5,1.0,,,,,,
223,,iti,,html-keyboard-response,223,135286,0.0-1.0-43.0-0.0-5.0,0,0,76970,,,,,,,,,,,,,,,,,,,,,,,,,,,,,,,,,,,,,,232.5,1.0,,,,,,
224,,choice,,html-keyboard-response,224,135300,0.0-1.0-44.0-0.0-0.0,0,0,76970,,10.0,,,68.0,42.0,42.0,1000.0,1500.0,0.0,1.0,0.0,40-80,,1.0,makeup compact,trumpet,80.0,40.0,makeup compact6,trumpet13,80.0,40.0,P0754_hero.jpg,JUPITER+JTR1600GS.jpg,/static/Category_learning/Stimuli/Experimental_stims/makeup compact/P0754_hero.jpg,/static/Category_learning/Stimuli/Experimental_stims/trumpet/JUPITER+JTR1600GS.jpg,1.0,makeup compact,trumpet,80.0,40.0,makeup compact6,trumpet13,80.0,40.0,0.0,232.51,0.01,,,,,,
225,,confirmation,,html-keyboard-response,225,136795,0.0-1.0-44.0-0.0-1.0-0.0,0,0,76970,,,,,,42.0,,,,,,,,,,,,,,,,,,,,,,,,,,,,,,,,234.0,1.49,,,,,,
226,,isi,,html-keyboard-response,226,136899,0.0-1.0-44.0-0.0-2.0,0,0,76970,,,,,,,,,,,,,,,,,,,,,,,,,,,,,,,,,,,,,,235.0,1.0,,,,,,
227,,feedback,,html-keyboard-response,227,137902,0.0-1.0-44.0-0.0-3.0-0.0,0,0,76970,,,,,,42.0,,,,,,,,,,,,,,,,,,,,,,,,,,,,,,,,236.0,1.0,,,,,,
228,,iti,,html-keyboard-response,228,138005,0.0-1.0-44.0-0.0-5.0,0,0,76970,,,,,,,,,,,,,,,,,,,,,,,,,,,,,,,,,,,,,,237.5,1.5,,,,,,
229,,choice,,html-keyboard-response,229,139512,0.0-1.0-45.0-0.0-0.0,0,0,76970,,,,,,43.0,43.0,1000.0,2000.0,0.0,1.0,0.0,80-80,,,hat,makeup compact,80.0,80.0,hat2,makeup compact10,100.0,60.0,Ahatwithfeat7.jpg,P95108_hero.jpg,/static/Category_learning/Stimuli/Experimental_stims/hat/Ahatwithfeat7.jpg,/static/Category_learning/Stimuli/Experimental_stims/makeup compact/P95108_hero.jpg,,,,,,,,,,1.0,239.0,1.5,,,,,,
230,,isi,,html-keyboard-response,230,139617,0.0-1.0-45.0-0.0-2.0,0,0,76970,,,,,,,,,,,,,,,,,,,,,,,,,,,,,,,,,,,,,,240.0,1.0,,,,,,
231,,no_response,,html-keyboard-response,231,140623,0.0-1.0-45.0-0.0-4.0-0.0,0,0,76970,,,,,,,,,,,,,,,,,,,,,,,,,,,,,,,,,,,,,,241.0,1.0,,,,,,
232,,iti,,html-keyboard-response,232,140742,0.0-1.0-45.0-0.0-5.0,0,0,76970,,,,,,,,,,,,,,,,,,,,,,,,,,,,,,,,,,,,,,243.0,2.0,,,,,,
233,,choice,,html-keyboard-response,233,141136,0.0-1.0-45.0-0.1-0.1,0,0,76970,,391.0,,,68.0,43.0,43.0,1000.0,2000.0,0.0,1.0,0.0,80-80,,,hat,makeup compact,80.0,80.0,hat2,makeup compact10,100.0,60.0,Ahatwithfeat7.jpg,P95108_hero.jpg,/static/Category_learning/Stimuli/Experimental_stims/hat/Ahatwithfeat7.jpg,/static/Category_learning/Stimuli/Experimental_stims/makeup compact/P95108_hero.jpg,1.0,hat,makeup compact,80.0,80.0,hat2,makeup compact10,100.0,60.0,0.0,243.391,0.391,,,,,,
234,,confirmation,,html-keyboard-response,234,142253,0.0-1.0-45.0-0.1-1.1-0.1,0,0,76970,,,,,,43.0,,,,,,,,,,,,,,,,,,,,,,,,,,,,,,,,244.5,1.109,,,,,,
235,,isi,,html-keyboard-response,235,142358,0.0-1.0-45.0-0.1-2.1,0,0,76970,,,,,,,,,,,,,,,,,,,,,,,,,,,,,,,,,,,,,,245.5,1.0,,,,,,
236,,feedback,,html-keyboard-response,236,143362,0.0-1.0-45.0-0.1-3.1-0.1,0,0,76970,,,,,,43.0,,,,,,,,,,,,,,,,,,,,,,,,,,,,,,,,246.5,1.0,,,,,,
237,,iti,,html-keyboard-response,237,143467,0.0-1.0-45.0-0.1-5.1,0,0,76970,,,,,,,,,,,,,,,,,,,,,,,,,,,,,,,,,,,,,,248.5,2.0,,,,,,
238,,choice,,html-keyboard-response,238,143928,0.0-1.0-46.0-0.0-0.0,0,0,76970,,457.0,,,68.0,44.0,44.0,1500.0,1500.0,0.0,1.0,0.0,40-60,,1.0,fan,tent,60.0,40.0,fan1,tent4,80.0,40.0,01393.fpx.jpg,Atent12.jpg,/static/Category_learning/Stimuli/Experimental_stims/fan/01393.fpx.jpg,/static/Category_learning/Stimuli/Experimental_stims/tent/Atent12.jpg,1.0,fan,tent,60.0,40.0,fan1,tent4,80.0,40.0,0.0,248.957,0.457,,,,,,
239,,confirmation,,html-keyboard-response,239,144976,0.0-1.0-46.0-0.0-1.0-0.0,0,0,76970,,,,,,44.0,,,,,,,,,,,,,,,,,,,,,,,,,,,,,,,,250.0,1.043,,,,,,
240,,isi,,html-keyboard-response,240,145082,0.0-1.0-46.0-0.0-2.0,0,0,76970,,,,,,,,,,,,,,,,,,,,,,,,,,,,,,,,,,,,,,251.5,1.5,,,,,,
241,,feedback,,html-keyboard-response,241,146086,0.0-1.0-46.0-0.0-3.0-0.0,0,0,76970,,,,,,44.0,,,,,,,,,,,,,,,,,,,,,,,,,,,,,,,,252.5,1.0,,,,,,
242,,iti,,html-keyboard-response,242,146193,0.0-1.0-46.0-0.0-5.0,0,0,76970,,,,,,,,,,,,,,,,,,,,,,,,,,,,,,,,,,,,,,254.0,1.5,,,,,,
243,,choice,,html-keyboard-response,243,147226,0.0-1.0-47.0-0.0-0.0,0,0,76970,,1031.0,,,68.0,45.0,45.0,2000.0,3500.0,0.0,1.0,1.0,80-80,1.0,,makeup compact,makeup compact,80.0,80.0,makeup compact9,makeup compact6,100.0,80.0,b_102019.jpg,P0754_hero.jpg,/static/Category_learning/Stimuli/Experimental_stims/makeup compact/b_102019.jpg,/static/Category_learning/Stimuli/Experimental_stims/makeup compact/P0754_hero.jpg,1.0,makeup compact,makeup compact,80.0,80.0,makeup compact9,makeup compact6,100.0,80.0,0.0,255.03099999999998,1.031,,,,,,
244,,confirmation,,html-keyboard-response,244,147703,0.0-1.0-47.0-0.0-1.0-0.0,0,0,76970,,,,,,45.0,,,,,,,,,,,,,,,,,,,,,,,,,,,,,,,,255.5,0.469,,,,,,
245,,isi,,html-keyboard-response,245,147811,0.0-1.0-47.0-0.0-2.0,0,0,76970,,,,,,,,,,,,,,,,,,,,,,,,,,,,,,,,,,,,,,257.5,2.0,,,,,,
246,,feedback,,html-keyboard-response,246,148816,0.0-1.0-47.0-0.0-3.0-0.0,0,0,76970,,,,,,45.0,,,,,,,,,,,,,,,,,,,,,,,,,,,,,,,,258.5,1.0,,,,,,
247,,iti,,html-keyboard-response,247,148923,0.0-1.0-47.0-0.0-5.0,0,0,76970,,,,,,,,,,,,,,,,,,,,,,,,,,,,,,,,,,,,,,262.0,3.5,,,,,,
248,,choice,,html-keyboard-response,248,149048,0.0-1.0-48.0-0.0-0.0,0,0,76970,,123.0,,,68.0,46.0,46.0,2000.0,1500.0,0.0,1.0,0.0,40-80,,0.0,yarn,lipstick,40.0,80.0,yarn8,lipstick9,60.0,100.0,smonlineyarn-285x250.jpg,P189145_hero.jpg,/static/Category_learning/Stimuli/Experimental_stims/yarn/smonlineyarn-285x250.jpg,/static/Category_learning/Stimuli/Experimental_stims/lipstick/P189145_hero.jpg,1.0,yarn,lipstick,40.0,80.0,yarn8,lipstick9,60.0,100.0,0.0,262.123,0.12300000000000001,,,,,,
249,,confirmation,,html-keyboard-response,249,150428,0.0-1.0-48.0-0.0-1.0-0.0,0,0,76970,,,,,,46.0,,,,,,,,,,,,,,,,,,,,,,,,,,,,,,,,263.5,1.3769999999999998,,,,,,
250,,isi,,html-keyboard-response,250,150534,0.0-1.0-48.0-0.0-2.0,0,0,76970,,,,,,,,,,,,,,,,,,,,,,,,,,,,,,,,,,,,,,265.5,2.0,,,,,,
251,,feedback,,html-keyboard-response,251,151538,0.0-1.0-48.0-0.0-3.0-0.0,0,0,76970,,,,,,46.0,,,,,,,,,,,,,,,,,,,,,,,,,,,,,,,,266.5,1.0,,,,,,
252,,iti,,html-keyboard-response,252,151644,0.0-1.0-48.0-0.0-5.0,0,0,76970,,,,,,,,,,,,,,,,,,,,,,,,,,,,,,,,,,,,,,268.0,1.5,,,,,,
253,,choice,,html-keyboard-response,253,151819,0.0-1.0-49.0-0.0-0.0,0,0,76970,,172.0,,,68.0,47.0,47.0,1000.0,1000.0,0.0,1.0,1.0,60-60,1.0,,fan,fan,60.0,60.0,fan1,fan6,80.0,60.0,01393.fpx.jpg,30090.fpx.jpg,/static/Category_learning/Stimuli/Experimental_stims/fan/01393.fpx.jpg,/static/Category_learning/Stimuli/Experimental_stims/fan/30090.fpx.jpg,1.0,fan,fan,60.0,60.0,fan1,fan6,80.0,60.0,0.0,268.172,0.172,,,,,,
254,,confirmation,,html-keyboard-response,254,153154,0.0-1.0-49.0-0.0-1.0-0.0,0,0,76970,,,,,,47.0,,,,,,,,,,,,,,,,,,,,,,,,,,,,,,,,269.5,1.328,,,,,,
255,,isi,,html-keyboard-response,255,153257,0.0-1.0-49.0-0.0-2.0,0,0,76970,,,,,,,,,,,,,,,,,,,,,,,,,,,,,,,,,,,,,,270.5,1.0,,,,,,
256,,feedback,,html-keyboard-response,256,154265,0.0-1.0-49.0-0.0-3.0-0.0,0,0,76970,,,,,,47.0,,,,,,,,,,,,,,,,,,,,,,,,,,,,,,,,271.5,1.0,,,,,,
257,,iti,,html-keyboard-response,257,154373,0.0-1.0-49.0-0.0-5.0,0,0,76970,,,,,,,,,,,,,,,,,,,,,,,,,,,,,,,,,,,,,,272.5,1.0,,,,,,
258,,choice,,html-keyboard-response,258,154611,0.0-1.0-50.0-0.0-0.0,0,0,76970,,235.0,,,68.0,48.0,48.0,1500.0,1000.0,0.0,1.0,0.0,40-60,,0.0,train,flashlight,40.0,60.0,train8,flashlight12,40.0,60.0,PL51190.jpg,new05.jpg,/static/Category_learning/Stimuli/Experimental_stims/train/PL51190.jpg,/static/Category_learning/Stimuli/Experimental_stims/flashlight/new05.jpg,1.0,train,flashlight,40.0,60.0,train8,flashlight12,40.0,60.0,0.0,272.735,0.235,,,,,,
259,,confirmation,,html-keyboard-response,259,155881,0.0-1.0-50.0-0.0-1.0-0.0,0,0,76970,,,,,,48.0,,,,,,,,,,,,,,,,,,,,,,,,,,,,,,,,274.0,1.265,,,,,,
260,,isi,,html-keyboard-response,260,155987,0.0-1.0-50.0-0.0-2.0,0,0,76970,,,,,,,,,,,,,,,,,,,,,,,,,,,,,,,,,,,,,,275.5,1.5,,,,,,
261,,feedback,,html-keyboard-response,261,156992,0.0-1.0-50.0-0.0-3.0-0.0,0,0,76970,,,,,,48.0,,,,,,,,,,,,,,,,,,,,,,,,,,,,,,,,276.5,1.0,,,,,,
262,,iti,,html-keyboard-response,262,157096,0.0-1.0-50.0-0.0-5.0,0,0,76970,,,,,,,,,,,,,,,,,,,,,,,,,,,,,,,,,,,,,,277.5,1.0,,,,,,
263,,choice,,html-keyboard-response,263,158603,0.0-1.0-51.0-0.0-0.0,0,0,76970,,,,,,49.0,49.0,1000.0,1000.0,0.0,1.0,1.0,40-40,1.0,,yarn,yarn,40.0,40.0,yarn10,yarn8,60.0,60.0,revelation-yarn.jpg,smonlineyarn-285x250.jpg,/static/Category_learning/Stimuli/Experimental_stims/yarn/revelation-yarn.jpg,/static/Category_learning/Stimuli/Experimental_stims/yarn/smonlineyarn-285x250.jpg,,,,,,,,,,1.0,279.0,1.5,,,,,,
264,,isi,,html-keyboard-response,264,158710,0.0-1.0-51.0-0.0-2.0,0,0,76970,,,,,,,,,,,,,,,,,,,,,,,,,,,,,,,,,,,,,,280.0,1.0,,,,,,
265,,no_response,,html-keyboard-response,265,159716,0.0-1.0-51.0-0.0-4.0-0.0,0,0,76970,,,,,,,,,,,,,,,,,,,,,,,,,,,,,,,,,,,,,,281.0,1.0,,,,,,
266,,iti,,html-keyboard-response,266,159837,0.0-1.0-51.0-0.0-5.0,0,0,76970,,,,,,,,,,,,,,,,,,,,,,,,,,,,,,,,,,,,,,282.0,1.0,,,,,,
267,,choice,,html-keyboard-response,267,160419,0.0-1.0-51.0-0.1-0.1,0,0,76970,,578.0,,,68.0,49.0,49.0,1000.0,1000.0,0.0,1.0,1.0,40-40,1.0,,yarn,yarn,40.0,40.0,yarn10,yarn8,60.0,60.0,revelation-yarn.jpg,smonlineyarn-285x250.jpg,/static/Category_learning/Stimuli/Experimental_stims/yarn/revelation-yarn.jpg,/static/Category_learning/Stimuli/Experimental_stims/yarn/smonlineyarn-285x250.jpg,1.0,yarn,yarn,40.0,40.0,yarn10,yarn8,60.0,60.0,0.0,282.578,0.578,,,,,,
268,,confirmation,,html-keyboard-response,268,161346,0.0-1.0-51.0-0.1-1.1-0.1,0,0,76970,,,,,,49.0,,,,,,,,,,,,,,,,,,,,,,,,,,,,,,,,283.5,0.922,,,,,,
269,,isi,,html-keyboard-response,269,161450,0.0-1.0-51.0-0.1-2.1,0,0,76970,,,,,,,,,,,,,,,,,,,,,,,,,,,,,,,,,,,,,,287.0,3.5,,,,,,
270,,feedback,,html-keyboard-response,270,162454,0.0-1.0-51.0-0.1-3.1-0.1,0,0,76970,,,,,,49.0,,,,,,,,,,,,,,,,,,,,,,,,,,,,,,,,288.0,1.0,,,,,,
271,,iti,,html-keyboard-response,271,162557,0.0-1.0-51.0-0.1-5.1,0,0,76970,,,,,,,,,,,,,,,,,,,,,,,,,,,,,,,,,,,,,,289.5,1.5,,,,,,
272,,choice,,html-keyboard-response,272,162789,0.0-1.0-52.0-0.0-0.0,0,0,76970,,229.0,,,68.0,50.0,50.0,1000.0,2000.0,0.0,1.0,0.0,20-80,,1.0,lipstick,sofa,80.0,20.0,lipstick13,sofa8,60.0,20.0,P184708_hero.jpg,allegro-leather-sofa-med2.jpg,/static/Category_learning/Stimuli/Experimental_stims/lipstick/P184708_hero.jpg,/static/Category_learning/Stimuli/Experimental_stims/sofa/allegro-leather-sofa-med2.jpg,1.0,lipstick,sofa,80.0,20.0,lipstick13,sofa8,60.0,20.0,0.0,289.72900000000004,0.22899999999999998,,,,,,
273,,confirmation,,html-keyboard-response,273,164064,0.0-1.0-52.0-0.0-1.0-0.0,0,0,76970,,,,,,50.0,,,,,,,,,,,,,,,,,,,,,,,,,,,,,,,,291.0,1.271,,,,,,
274,,isi,,html-keyboard-response,274,164169,0.0-1.0-52.0-0.0-2.0,0,0,76970,,,,,,,,,,,,,,,,,,,,,,,,,,,,,,,,,,,,,,292.0,1.0,,,,,,
275,,feedback,,html-keyboard-response,275,165175,0.0-1.0-52.0-0.0-3.0-0.0,0,0,76970,,,,,,50.0,,,,,,,,,,,,,,,,,,,,,,,,,,,,,,,,293.0,1.0,,,,,,
276,,iti,,html-keyboard-response,276,165281,0.0-1.0-52.0-0.0-5.0,0,0,76970,,,,,,,,,,,,,,,,,,,,,,,,,,,,,,,,,,,,,,295.0,2.0,,,,,,
277,,choice,,html-keyboard-response,277,165680,0.0-1.0-53.0-0.0-0.0,0,0,76970,,396.0,,,68.0,51.0,51.0,1000.0,2000.0,0.0,1.0,0.0,40-60,,0.0,stool,baby carriage,40.0,60.0,stool5,baby carriage11,40.0,80.0,ASTOOL23.jpg,Baby_Carriage-2.jpg,/static/Category_learning/Stimuli/Experimental_stims/stool/ASTOOL23.jpg,/static/Category_learning/Stimuli/Experimental_stims/baby carriage/Baby_Carriage-2.jpg,1.0,stool,baby carriage,40.0,60.0,stool5,baby carriage11,40.0,80.0,0.0,295.39599999999996,0.396,,,,,,
278,,confirmation,,html-keyboard-response,278,166788,0.0-1.0-53.0-0.0-1.0-0.0,0,0,76970,,,,,,51.0,,,,,,,,,,,,,,,,,,,,,,,,,,,,,,,,296.5,1.104,,,,,,
279,,isi,,html-keyboard-response,279,166892,0.0-1.0-53.0-0.0-2.0,0,0,76970,,,,,,,,,,,,,,,,,,,,,,,,,,,,,,,,,,,,,,297.5,1.0,,,,,,
280,,feedback,,html-keyboard-response,280,167898,0.0-1.0-53.0-0.0-3.0-0.0,0,0,76970,,,,,,51.0,,,,,,,,,,,,,,,,,,,,,,,,,,,,,,,,298.5,1.0,,,,,,
281,,iti,,html-keyboard-response,281,168002,0.0-1.0-53.0-0.0-5.0,0,0,76970,,,,,,,,,,,,,,,,,,,,,,,,,,,,,,,,,,,,,,300.5,2.0,,,,,,
282,,choice,,html-keyboard-response,282,168214,0.0-1.0-54.0-0.0-0.0,0,0,76970,,209.0,,,68.0,52.0,52.0,1000.0,2000.0,0.0,1.0,0.0,40-40,,,telescope,vase,40.0,40.0,telescope10,vase4,20.0,60.0,digimarc.ms02.jpg,Avase111.jpg,/static/Category_learning/Stimuli/Experimental_stims/telescope/digimarc.ms02.jpg,/static/Category_learning/Stimuli/Experimental_stims/vase/Avase111.jpg,1.0,telescope,vase,40.0,40.0,telescope10,vase4,20.0,60.0,0.0,300.709,0.209,,,,,,
283,,confirmation,,html-keyboard-response,283,169509,0.0-1.0-54.0-0.0-1.0-0.0,0,0,76970,,,,,,52.0,,,,,,,,,,,,,,,,,,,,,,,,,,,,,,,,302.0,1.291,,,,,,
284,,isi,,html-keyboard-response,284,169614,0.0-1.0-54.0-0.0-2.0,0,0,76970,,,,,,,,,,,,,,,,,,,,,,,,,,,,,,,,,,,,,,303.0,1.0,,,,,,
285,,feedback,,html-keyboard-response,285,170621,0.0-1.0-54.0-0.0-3.0-0.0,0,0,76970,,,,,,52.0,,,,,,,,,,,,,,,,,,,,,,,,,,,,,,,,304.0,1.0,,,,,,
286,,iti,,html-keyboard-response,286,170724,0.0-1.0-54.0-0.0-5.0,0,0,76970,,,,,,,,,,,,,,,,,,,,,,,,,,,,,,,,,,,,,,306.0,2.0,,,,,,
287,,choice,,html-keyboard-response,287,171476,0.0-1.0-55.0-0.0-0.0,0,0,76970,,749.0,,,75.0,53.0,53.0,1000.0,1500.0,0.0,1.0,1.0,60-80,0.0,,lipstick,bongo,80.0,60.0,lipstick13,bongo12,60.0,40.0,P184708_hero.jpg,26686609.thl.jpg,/static/Category_learning/Stimuli/Experimental_stims/lipstick/P184708_hero.jpg,/static/Category_learning/Stimuli/Experimental_stims/bongo/26686609.thl.jpg,0.0,bongo,lipstick,60.0,80.0,bongo12,lipstick13,40.0,60.0,0.0,306.749,0.7490000000000001,,,,,,
288,,confirmation,,html-keyboard-response,288,172234,0.0-1.0-55.0-0.0-1.0-0.0,0,0,76970,,,,,,53.0,,,,,,,,,,,,,,,,,,,,,,,,,,,,,,,,307.5,0.7509999999999999,,,,,,
289,,isi,,html-keyboard-response,289,172339,0.0-1.0-55.0-0.0-2.0,0,0,76970,,,,,,,,,,,,,,,,,,,,,,,,,,,,,,,,,,,,,,308.5,1.0,,,,,,
290,,feedback,,html-keyboard-response,290,173342,0.0-1.0-55.0-0.0-3.0-0.0,0,0,76970,,,,,,53.0,,,,,,,,,,,,,,,,,,,,,,,,,,,,,,,,309.5,1.0,,,,,,
291,,iti,,html-keyboard-response,291,173450,0.0-1.0-55.0-0.0-5.0,0,0,76970,,,,,,,,,,,,,,,,,,,,,,,,,,,,,,,,,,,,,,311.0,1.5,,,,,,
292,,choice,,html-keyboard-response,292,173628,0.0-1.0-56.0-0.0-0.0,0,0,76970,,176.0,,,68.0,54.0,54.0,2000.0,1500.0,0.0,1.0,0.0,20-80,,1.0,hat,nail polish,80.0,20.0,hat3,nail polish14,100.0,40.0,Astrawhat49.jpg,38031405.JPG,/static/Category_learning/Stimuli/Experimental_stims/hat/Astrawhat49.jpg,/static/Category_learning/Stimuli/Experimental_stims/nail polish/38031405.JPG,1.0,hat,nail polish,80.0,20.0,hat3,nail polish14,100.0,40.0,0.0,311.176,0.17600000000000002,,,,,,
293,,confirmation,,html-keyboard-response,293,174956,0.0-1.0-56.0-0.0-1.0-0.0,0,0,76970,,,,,,54.0,,,,,,,,,,,,,,,,,,,,,,,,,,,,,,,,312.5,1.324,,,,,,
294,,isi,,html-keyboard-response,294,175062,0.0-1.0-56.0-0.0-2.0,0,0,76970,,,,,,,,,,,,,,,,,,,,,,,,,,,,,,,,,,,,,,314.5,2.0,,,,,,
295,,feedback,,html-keyboard-response,295,176069,0.0-1.0-56.0-0.0-3.0-0.0,0,0,76970,,,,,,54.0,,,,,,,,,,,,,,,,,,,,,,,,,,,,,,,,315.5,1.0,,,,,,
296,,iti,,html-keyboard-response,296,176173,0.0-1.0-56.0-0.0-5.0,0,0,76970,,,,,,,,,,,,,,,,,,,,,,,,,,,,,,,,,,,,,,317.0,1.5,,,,,,
297,,choice,,html-keyboard-response,297,176392,0.0-1.0-57.0-0.0-0.0,0,0,76970,,217.0,,,68.0,55.0,55.0,3000.0,1000.0,0.0,1.0,0.0,20-60,,0.0,necklace,bench,20.0,60.0,necklace6,bench4,0.0,40.0,Agoldnecklace.jpg,30892819.thl.jpg,/static/Category_learning/Stimuli/Experimental_stims/necklace/Agoldnecklace.jpg,/static/Category_learning/Stimuli/Experimental_stims/bench/30892819.thl.jpg,1.0,necklace,bench,20.0,60.0,necklace6,bench4,0.0,40.0,0.0,317.217,0.217,,,,,,
298,,confirmation,,html-keyboard-response,298,177682,0.0-1.0-57.0-0.0-1.0-0.0,0,0,76970,,,,,,55.0,,,,,,,,,,,,,,,,,,,,,,,,,,,,,,,,318.5,1.2830000000000001,,,,,,
299,,isi,,html-keyboard-response,299,177788,0.0-1.0-57.0-0.0-2.0,0,0,76970,,,,,,,,,,,,,,,,,,,,,,,,,,,,,,,,,,,,,,321.5,3.0,,,,,,
300,,feedback,,html-keyboard-response,300,178791,0.0-1.0-57.0-0.0-3.0-0.0,0,0,76970,,,,,,55.0,,,,,,,,,,,,,,,,,,,,,,,,,,,,,,,,322.5,1.0,,,,,,
301,,iti,,html-keyboard-response,301,178896,0.0-1.0-57.0-0.0-5.0,0,0,76970,,,,,,,,,,,,,,,,,,,,,,,,,,,,,,,,,,,,,,323.5,1.0,,,,,,
302,,choice,,html-keyboard-response,302,179201,0.0-1.0-58.0-0.0-0.0,0,0,76970,,303.0,,,68.0,56.0,56.0,1000.0,1500.0,0.0,1.0,0.0,20-80,,1.0,key chain,sofa,80.0,20.0,key chain1,sofa13,80.0,40.0,jm05s16.jpg,ACOUCH25.jpg,/static/Category_learning/Stimuli/Experimental_stims/key chain/jm05s16.jpg,/static/Category_learning/Stimuli/Experimental_stims/sofa/ACOUCH25.jpg,1.0,key chain,sofa,80.0,20.0,key chain1,sofa13,80.0,40.0,0.0,323.803,0.303,,,,,,
303,,confirmation,,html-keyboard-response,303,180404,0.0-1.0-58.0-0.0-1.0-0.0,0,0,76970,,,,,,56.0,,,,,,,,,,,,,,,,,,,,,,,,,,,,,,,,325.0,1.197,,,,,,
304,,isi,,html-keyboard-response,304,180510,0.0-1.0-58.0-0.0-2.0,0,0,76970,,,,,,,,,,,,,,,,,,,,,,,,,,,,,,,,,,,,,,326.0,1.0,,,,,,
305,,feedback,,html-keyboard-response,305,181515,0.0-1.0-58.0-0.0-3.0-0.0,0,0,76970,,,,,,56.0,,,,,,,,,,,,,,,,,,,,,,,,,,,,,,,,327.0,1.0,,,,,,
306,,iti,,html-keyboard-response,306,181622,0.0-1.0-58.0-0.0-5.0,0,0,76970,,,,,,,,,,,,,,,,,,,,,,,,,,,,,,,,,,,,,,328.5,1.5,,,,,,
307,,choice,,html-keyboard-response,307,183126,0.0-1.0-59.0-0.0-0.0,0,0,76970,,,,,,57.0,57.0,1500.0,1000.0,0.0,1.0,1.0,80-80,1.0,,key chain,key chain,80.0,80.0,key chain1,key chain8,80.0,100.0,jm05s16.jpg,Keychain01.jpg,/static/Category_learning/Stimuli/Experimental_stims/key chain/jm05s16.jpg,/static/Category_learning/Stimuli/Experimental_stims/key chain/Keychain01.jpg,,,,,,,,,,1.0,330.0,1.5,,,,,,
308,,isi,,html-keyboard-response,308,183234,0.0-1.0-59.0-0.0-2.0,0,0,76970,,,,,,,,,,,,,,,,,,,,,,,,,,,,,,,,,,,,,,331.5,1.5,,,,,,
309,,no_response,,html-keyboard-response,309,184241,0.0-1.0-59.0-0.0-4.0-0.0,0,0,76970,,,,,,,,,,,,,,,,,,,,,,,,,,,,,,,,,,,,,,332.5,1.0,,,,,,
310,,iti,,html-keyboard-response,310,184360,0.0-1.0-59.0-0.0-5.0,0,0,76970,,,,,,,,,,,,,,,,,,,,,,,,,,,,,,,,,,,,,,333.5,1.0,,,,,,
311,,choice,,html-keyboard-response,311,185795,0.0-1.0-59.0-0.1-0.1,0,0,76970,,1432.0,,,68.0,57.0,57.0,1500.0,1000.0,0.0,1.0,1.0,80-80,1.0,,key chain,key chain,80.0,80.0,key chain1,key chain8,80.0,100.0,jm05s16.jpg,Keychain01.jpg,/static/Category_learning/Stimuli/Experimental_stims/key chain/jm05s16.jpg,/static/Category_learning/Stimuli/Experimental_stims/key chain/Keychain01.jpg,1.0,key chain,key chain,80.0,80.0,key chain1,key chain8,80.0,100.0,0.0,334.93199999999996,1.432,,,,,,
312,,confirmation,,html-keyboard-response,312,185870,0.0-1.0-59.0-0.1-1.1-0.1,0,0,76970,,,,,,57.0,,,,,,,,,,,,,,,,,,,,,,,,,,,,,,,,335.0,0.068,,,,,,
313,,isi,,html-keyboard-response,313,185973,0.0-1.0-59.0-0.1-2.1,0,0,76970,,,,,,,,,,,,,,,,,,,,,,,,,,,,,,,,,,,,,,336.0,1.0,,,,,,
314,,feedback,,html-keyboard-response,314,186979,0.0-1.0-59.0-0.1-3.1-0.1,0,0,76970,,,,,,57.0,,,,,,,,,,,,,,,,,,,,,,,,,,,,,,,,337.0,1.0,,,,,,
315,,iti,,html-keyboard-response,315,187083,0.0-1.0-59.0-0.1-5.1,0,0,76970,,,,,,,,,,,,,,,,,,,,,,,,,,,,,,,,,,,,,,339.0,2.0,,,,,,
316,,choice,,html-keyboard-response,316,187112,0.0-1.0-60.0-0.0-0.0,0,0,76970,,27.0,,,68.0,58.0,58.0,3000.0,1000.0,0.0,1.0,0.0,40-80,,0.0,tent,hat,40.0,80.0,tent14,hat14,20.0,60.0,inflatable-tent.jpg,Ahat136.jpg,/static/Category_learning/Stimuli/Experimental_stims/tent/inflatable-tent.jpg,/static/Category_learning/Stimuli/Experimental_stims/hat/Ahat136.jpg,1.0,tent,hat,40.0,80.0,tent14,hat14,20.0,60.0,0.0,339.027,0.027000000000000003,,,,,,
317,,confirmation,,html-keyboard-response,317,188588,0.0-1.0-60.0-0.0-1.0-0.0,0,0,76970,,,,,,58.0,,,,,,,,,,,,,,,,,,,,,,,,,,,,,,,,340.5,1.473,,,,,,
318,,isi,,html-keyboard-response,318,188695,0.0-1.0-60.0-0.0-2.0,0,0,76970,,,,,,,,,,,,,,,,,,,,,,,,,,,,,,,,,,,,,,343.5,3.0,,,,,,
319,,feedback,,html-keyboard-response,319,189700,0.0-1.0-60.0-0.0-3.0-0.0,0,0,76970,,,,,,58.0,,,,,,,,,,,,,,,,,,,,,,,,,,,,,,,,344.5,1.0,,,,,,
320,,iti,,html-keyboard-response,320,189804,0.0-1.0-60.0-0.0-5.0,0,0,76970,,,,,,,,,,,,,,,,,,,,,,,,,,,,,,,,,,,,,,345.5,1.0,,,,,,
321,,choice,,html-keyboard-response,321,191308,0.0-1.0-61.0-0.0-0.0,0,0,76970,,,,,,59.0,59.0,1500.0,1500.0,0.0,1.0,0.0,20-80,,1.0,frame,sofa,80.0,20.0,frame5,sofa11,60.0,0.0,AFRAME136.jpg,ALOVSEA19.jpg,/static/Category_learning/Stimuli/Experimental_stims/frame/AFRAME136.jpg,/static/Category_learning/Stimuli/Experimental_stims/sofa/ALOVSEA19.jpg,,,,,,,,,,1.0,347.0,1.5,,,,,,
322,,isi,,html-keyboard-response,322,191416,0.0-1.0-61.0-0.0-2.0,0,0,76970,,,,,,,,,,,,,,,,,,,,,,,,,,,,,,,,,,,,,,348.5,1.5,,,,,,
323,,no_response,,html-keyboard-response,323,192424,0.0-1.0-61.0-0.0-4.0-0.0,0,0,76970,,,,,,,,,,,,,,,,,,,,,,,,,,,,,,,,,,,,,,349.5,1.0,,,,,,
324,,iti,,html-keyboard-response,324,192544,0.0-1.0-61.0-0.0-5.0,0,0,76970,,,,,,,,,,,,,,,,,,,,,,,,,,,,,,,,,,,,,,351.0,1.5,,,,,,
325,,block_over,,html-keyboard-response,325,195051,0.0-1.0-61.0-0.0-7.0-0.0,0,0,76970,,2486.0,,,68.0,59.0,,,,,,,,,,,,,,,,,,,,,,,,,,,,,,,,,,,,,,,
326,,start_run,,html-keyboard-response,326,196670,0.0-1.0-61.0-0.0-7.0-1.0,0,0,76970,,1618.0,,,84.0,,,,,,,,,,,,,,,,,,,,,,,,,,,,,,,,,,,,,,,,
327,,choice,,html-keyboard-response,327,197144,0.0-1.0-61.0-0.1-0.1,0,0,76970,,471.0,,,68.0,59.0,65.0,3000.0,2000.0,0.0,2.0,0.0,40-40,,,watch,tape,40.0,40.0,watch9,tape2,40.0,20.0,mens-diamond-watches-euro-48733-ab.jpg,Tape_Dispenser.jpg,/static/Category_learning/Stimuli/Experimental_stims/watch/mens-diamond-watches-euro-48733-ab.jpg,/static/Category_learning/Stimuli/Experimental_stims/tape/Tape_Dispenser.jpg,1.0,watch,tape,40.0,40.0,watch9,tape2,40.0,20.0,0.0,0.47100000000000003,0.47100000000000003,,,,,,
328,,confirmation,,html-keyboard-response,328,198176,0.0-1.0-61.0-0.1-1.1-0.1,0,0,76970,,,,,,59.0,,,,,,,,,,,,,,,,,,,,,,,,,,,,,,,,1.5,1.0290000000000001,,,,,,
329,,isi,,html-keyboard-response,329,198282,0.0-1.0-61.0-0.1-2.1,0,0,76970,,,,,,,,,,,,,,,,,,,,,,,,,,,,,,,,,,,,,,3.0,1.5,,,,,,
330,,feedback,,html-keyboard-response,330,199289,0.0-1.0-61.0-0.1-3.1-0.1,0,0,76970,,,,,,59.0,,,,,,,,,,,,,,,,,,,,,,,,,,,,,,,,4.0,1.0,,,,,,
331,,iti,,html-keyboard-response,331,199392,0.0-1.0-61.0-0.1-5.1,0,0,76970,,,,,,,,,,,,,,,,,,,,,,,,,,,,,,,,,,,,,,5.5,1.5,,,,,,
332,,choice,,html-keyboard-response,332,199721,0.0-1.0-62.0-0.0-0.0,0,0,76970,,326.0,,,68.0,60.0,66.0,3000.0,1500.0,0.0,2.0,0.0,20-60,,0.0,pen,bowl,20.0,60.0,pen3,bowl13,0.0,80.0,pen08.jpg,Asoupbowl8.jpg,/static/Category_learning/Stimuli/Experimental_stims/pen/pen08.jpg,/static/Category_learning/Stimuli/Experimental_stims/bowl/Asoupbowl8.jpg,1.0,pen,bowl,20.0,60.0,pen3,bowl13,0.0,80.0,0.0,5.8260000000000005,0.326,,,,,,
333,,confirmation,,html-keyboard-response,333,200898,0.0-1.0-62.0-0.0-1.0-0.0,0,0,76970,,,,,,60.0,,,,,,,,,,,,,,,,,,,,,,,,,,,,,,,,7.0,1.1740000000000002,,,,,,
334,,isi,,html-keyboard-response,334,201005,0.0-1.0-62.0-0.0-2.0,0,0,76970,,,,,,,,,,,,,,,,,,,,,,,,,,,,,,,,,,,,,,10.0,3.0,,,,,,
335,,feedback,,html-keyboard-response,335,202011,0.0-1.0-62.0-0.0-3.0-0.0,0,0,76970,,,,,,60.0,,,,,,,,,,,,,,,,,,,,,,,,,,,,,,,,11.0,1.0,,,,,,
336,,iti,,html-keyboard-response,336,202117,0.0-1.0-62.0-0.0-5.0,0,0,76970,,,,,,,,,,,,,,,,,,,,,,,,,,,,,,,,,,,,,,12.5,1.5,,,,,,
337,,choice,,html-keyboard-response,337,202130,0.0-1.0-63.0-0.0-0.0,0,0,76970,,11.0,,,68.0,61.0,67.0,1000.0,3000.0,0.0,2.0,0.0,20-60,,0.0,nail polish,bongo,20.0,60.0,nail polish1,bongo8,20.0,80.0,200.jpg,26390661.thl.jpg,/static/Category_learning/Stimuli/Experimental_stims/nail polish/200.jpg,/static/Category_learning/Stimuli/Experimental_stims/bongo/26390661.thl.jpg,1.0,nail polish,bongo,20.0,60.0,nail polish1,bongo8,20.0,80.0,0.0,12.511,0.011000000000000001,,,,,,
338,,confirmation,,html-keyboard-response,338,203626,0.0-1.0-63.0-0.0-1.0-0.0,0,0,76970,,,,,,61.0,,,,,,,,,,,,,,,,,,,,,,,,,,,,,,,,14.0,1.489,,,,,,
339,,isi,,html-keyboard-response,339,203729,0.0-1.0-63.0-0.0-2.0,0,0,76970,,,,,,,,,,,,,,,,,,,,,,,,,,,,,,,,,,,,,,15.0,1.0,,,,,,
340,,feedback,,html-keyboard-response,340,204734,0.0-1.0-63.0-0.0-3.0-0.0,0,0,76970,,,,,,61.0,,,,,,,,,,,,,,,,,,,,,,,,,,,,,,,,16.0,1.0,,,,,,
341,,iti,,html-keyboard-response,341,204836,0.0-1.0-63.0-0.0-5.0,0,0,76970,,,,,,,,,,,,,,,,,,,,,,,,,,,,,,,,,,,,,,19.0,3.0,,,,,,
342,,choice,,html-keyboard-response,342,205016,0.0-1.0-64.0-0.0-0.0,0,0,76970,,176.0,,,68.0,62.0,68.0,1000.0,2000.0,0.0,2.0,0.0,20-20,,,power strip,patio lounge chair,20.0,20.0,power strip14,patio lounge chair13,20.0,20.0,88b2c724-e781-44ae-85d5-27b7591f659d_400.jpg,grosfillex-bahia-resin-chaise-lounges.jpg,/static/Category_learning/Stimuli/Experimental_stims/power strip/88b2c724-e781-44ae-85d5-27b7591f659d_400.jpg,/static/Category_learning/Stimuli/Experimental_stims/patio lounge chair/grosfillex-bahia-resin-chaise-lounges.jpg,1.0,power strip,patio lounge chair,20.0,20.0,power strip14,patio lounge chair13,20.0,20.0,0.0,19.176,0.17600000000000002,,,,,,
343,,confirmation,,html-keyboard-response,343,206345,0.0-1.0-64.0-0.0-1.0-0.0,0,0,76970,,,,,,62.0,,,,,,,,,,,,,,,,,,,,,,,,,,,,,,,,20.5,1.324,,,,,,
344,,isi,,html-keyboard-response,344,206452,0.0-1.0-64.0-0.0-2.0,0,0,76970,,,,,,,,,,,,,,,,,,,,,,,,,,,,,,,,,,,,,,21.5,1.0,,,,,,
345,,feedback,,html-keyboard-response,345,207458,0.0-1.0-64.0-0.0-3.0-0.0,0,0,76970,,,,,,62.0,,,,,,,,,,,,,,,,,,,,,,,,,,,,,,,,22.5,1.0,,,,,,
346,,iti,,html-keyboard-response,346,207563,0.0-1.0-64.0-0.0-5.0,0,0,76970,,,,,,,,,,,,,,,,,,,,,,,,,,,,,,,,,,,,,,24.5,2.0,,,,,,
347,,choice,,html-keyboard-response,347,207732,0.0-1.0-65.0-0.0-0.0,0,0,76970,,166.0,,,68.0,63.0,69.0,1500.0,1500.0,0.0,2.0,0.0,40-40,,,tent,train,40.0,40.0,tent2,train1,40.0,40.0,Atent16.jpg,Model_Train.jpg,/static/Category_learning/Stimuli/Experimental_stims/tent/Atent16.jpg,/static/Category_learning/Stimuli/Experimental_stims/train/Model_Train.jpg,1.0,tent,train,40.0,40.0,tent2,train1,40.0,40.0,0.0,24.666,0.166,,,,,,
348,,confirmation,,html-keyboard-response,348,209071,0.0-1.0-65.0-0.0-1.0-0.0,0,0,76970,,,,,,63.0,,,,,,,,,,,,,,,,,,,,,,,,,,,,,,,,26.0,1.334,,,,,,
349,,isi,,html-keyboard-response,349,209178,0.0-1.0-65.0-0.0-2.0,0,0,76970,,,,,,,,,,,,,,,,,,,,,,,,,,,,,,,,,,,,,,27.5,1.5,,,,,,
350,,feedback,,html-keyboard-response,350,210183,0.0-1.0-65.0-0.0-3.0-0.0,0,0,76970,,,,,,63.0,,,,,,,,,,,,,,,,,,,,,,,,,,,,,,,,28.5,1.0,,,,,,
351,,iti,,html-keyboard-response,351,210288,0.0-1.0-65.0-0.0-5.0,0,0,76970,,,,,,,,,,,,,,,,,,,,,,,,,,,,,,,,,,,,,,30.0,1.5,,,,,,
352,,choice,,html-keyboard-response,352,210712,0.0-1.0-66.0-0.0-0.0,0,0,76970,,420.0,,,75.0,64.0,70.0,1500.0,1500.0,0.0,2.0,0.0,40-80,,1.0,key chain,vase,80.0,40.0,key chain5,vase7,60.0,60.0,keychain-metal-logo.jpg,8246344.thl.jpg,/static/Category_learning/Stimuli/Experimental_stims/key chain/keychain-metal-logo.jpg,/static/Category_learning/Stimuli/Experimental_stims/vase/8246344.thl.jpg,0.0,vase,key chain,40.0,80.0,vase7,key chain5,60.0,60.0,0.0,30.42,0.42,,,,,,
353,,confirmation,,html-keyboard-response,353,211798,0.0-1.0-66.0-0.0-1.0-0.0,0,0,76970,,,,,,64.0,,,,,,,,,,,,,,,,,,,,,,,,,,,,,,,,31.5,1.08,,,,,,
354,,isi,,html-keyboard-response,354,211901,0.0-1.0-66.0-0.0-2.0,0,0,76970,,,,,,,,,,,,,,,,,,,,,,,,,,,,,,,,,,,,,,33.0,1.5,,,,,,
355,,feedback,,html-keyboard-response,355,212908,0.0-1.0-66.0-0.0-3.0-0.0,0,0,76970,,,,,,64.0,,,,,,,,,,,,,,,,,,,,,,,,,,,,,,,,34.0,1.0,,,,,,
356,,iti,,html-keyboard-response,356,213013,0.0-1.0-66.0-0.0-5.0,0,0,76970,,,,,,,,,,,,,,,,,,,,,,,,,,,,,,,,,,,,,,35.5,1.5,,,,,,
357,,choice,,html-keyboard-response,357,213456,0.0-1.0-67.0-0.0-0.0,0,0,76970,,440.0,,,75.0,65.0,71.0,1000.0,2000.0,0.0,2.0,0.0,20-40,,0.0,power strip,trumpet,20.0,40.0,power strip5,trumpet8,0.0,60.0,93e4a283-bcd6-4ad1-8add-339658cda0fc_400.jpg,trumpet33.jpg,/static/Category_learning/Stimuli/Experimental_stims/power strip/93e4a283-bcd6-4ad1-8add-339658cda0fc_400.jpg,/static/Category_learning/Stimuli/Experimental_stims/trumpet/trumpet33.jpg,0.0,trumpet,power strip,40.0,20.0,trumpet8,power strip5,60.0,0.0,0.0,35.94,0.44,,,,,,
358,,confirmation,,html-keyboard-response,358,214524,0.0-1.0-67.0-0.0-1.0-0.0,0,0,76970,,,,,,65.0,,,,,,,,,,,,,,,,,,,,,,,,,,,,,,,,37.0,1.06,,,,,,
359,,isi,,html-keyboard-response,359,214631,0.0-1.0-67.0-0.0-2.0,0,0,76970,,,,,,,,,,,,,,,,,,,,,,,,,,,,,,,,,,,,,,38.0,1.0,,,,,,
360,,feedback,,html-keyboard-response,360,215637,0.0-1.0-67.0-0.0-3.0-0.0,0,0,76970,,,,,,65.0,,,,,,,,,,,,,,,,,,,,,,,,,,,,,,,,39.0,1.0,,,,,,
361,,iti,,html-keyboard-response,361,215743,0.0-1.0-67.0-0.0-5.0,0,0,76970,,,,,,,,,,,,,,,,,,,,,,,,,,,,,,,,,,,,,,41.0,2.0,,,,,,
362,,choice,,html-keyboard-response,362,216136,0.0-1.0-68.0-0.0-0.0,0,0,76970,,390.0,,,68.0,66.0,72.0,3500.0,1000.0,0.0,2.0,0.0,40-80,,1.0,key chain,watch,80.0,40.0,key chain10,watch3,80.0,60.0,Smurfs_Keychains_Smurf_Row_Boat.jpg,B0000TIIVO.01._SCLZZZZZZZ_V1124920780_.jpg,/static/Category_learning/Stimuli/Experimental_stims/key chain/Smurfs_Keychains_Smurf_Row_Boat.jpg,/static/Category_learning/Stimuli/Experimental_stims/watch/B0000TIIVO.01._SCLZZZZZZZ_V1124920780_.jpg,1.0,key chain,watch,80.0,40.0,key chain10,watch3,80.0,60.0,0.0,41.39,0.39,,,,,,
363,,confirmation,,html-keyboard-response,363,217254,0.0-1.0-68.0-0.0-1.0-0.0,0,0,76970,,,,,,66.0,,,,,,,,,,,,,,,,,,,,,,,,,,,,,,,,42.5,1.11,,,,,,
364,,isi,,html-keyboard-response,364,217361,0.0-1.0-68.0-0.0-2.0,0,0,76970,,,,,,,,,,,,,,,,,,,,,,,,,,,,,,,,,,,,,,46.0,3.5,,,,,,
365,,feedback,,html-keyboard-response,365,218368,0.0-1.0-68.0-0.0-3.0-0.0,0,0,76970,,,,,,66.0,,,,,,,,,,,,,,,,,,,,,,,,,,,,,,,,47.0,1.0,,,,,,
366,,iti,,html-keyboard-response,366,218473,0.0-1.0-68.0-0.0-5.0,0,0,76970,,,,,,,,,,,,,,,,,,,,,,,,,,,,,,,,,,,,,,48.0,1.0,,,,,,
367,,choice,,html-keyboard-response,367,219159,0.0-1.0-69.0-0.0-0.0,0,0,76970,,684.0,,,75.0,67.0,73.0,2000.0,2000.0,0.0,2.0,0.0,20-60,,0.0,small table,baby carriage,20.0,60.0,small table3,baby carriage14,20.0,80.0,Atable122.jpg,peg_perego_uno_verde.jpg,/static/Category_learning/Stimuli/Experimental_stims/small table/Atable122.jpg,/static/Category_learning/Stimuli/Experimental_stims/baby carriage/peg_perego_uno_verde.jpg,0.0,baby carriage,small table,60.0,20.0,baby carriage14,small table3,80.0,20.0,0.0,48.684,0.684,,,,,,
368,,confirmation,,html-keyboard-response,368,219980,0.0-1.0-69.0-0.0-1.0-0.0,0,0,76970,,,,,,67.0,,,,,,,,,,,,,,,,,,,,,,,,,,,,,,,,49.5,0.816,,,,,,
369,,isi,,html-keyboard-response,369,220085,0.0-1.0-69.0-0.0-2.0,0,0,76970,,,,,,,,,,,,,,,,,,,,,,,,,,,,,,,,,,,,,,51.5,2.0,,,,,,
370,,feedback,,html-keyboard-response,370,221090,0.0-1.0-69.0-0.0-3.0-0.0,0,0,76970,,,,,,67.0,,,,,,,,,,,,,,,,,,,,,,,,,,,,,,,,52.5,1.0,,,,,,
371,,iti,,html-keyboard-response,371,221194,0.0-1.0-69.0-0.0-5.0,0,0,76970,,,,,,,,,,,,,,,,,,,,,,,,,,,,,,,,,,,,,,54.5,2.0,,,,,,
372,,choice,,html-keyboard-response,372,221840,0.0-1.0-70.0-0.0-0.0,0,0,76970,,643.0,,,75.0,68.0,74.0,2000.0,3500.0,0.0,2.0,0.0,40-60,,1.0,baby carriage,train,60.0,40.0,baby carriage13,train15,40.0,40.0,300px-Barnevogn2.jpg,master-TD006.jpg,/static/Category_learning/Stimuli/Experimental_stims/baby carriage/300px-Barnevogn2.jpg,/static/Category_learning/Stimuli/Experimental_stims/train/master-TD006.jpg,0.0,train,baby carriage,40.0,60.0,train15,baby carriage13,40.0,40.0,0.0,55.143,0.643,,,,,,
373,,confirmation,,html-keyboard-response,373,222700,0.0-1.0-70.0-0.0-1.0-0.0,0,0,76970,,,,,,68.0,,,,,,,,,,,,,,,,,,,,,,,,,,,,,,,,56.0,0.857,,,,,,
374,,isi,,html-keyboard-response,374,222803,0.0-1.0-70.0-0.0-2.0,0,0,76970,,,,,,,,,,,,,,,,,,,,,,,,,,,,,,,,,,,,,,58.0,2.0,,,,,,
375,,feedback,,html-keyboard-response,375,223811,0.0-1.0-70.0-0.0-3.0-0.0,0,0,76970,,,,,,68.0,,,,,,,,,,,,,,,,,,,,,,,,,,,,,,,,59.0,1.0,,,,,,
376,,iti,,html-keyboard-response,376,223917,0.0-1.0-70.0-0.0-5.0,0,0,76970,,,,,,,,,,,,,,,,,,,,,,,,,,,,,,,,,,,,,,62.5,3.5,,,,,,
377,,choice,,html-keyboard-response,377,224766,0.0-1.0-71.0-0.0-0.0,0,0,76970,,846.0,,,68.0,69.0,75.0,1000.0,1000.0,0.0,2.0,0.0,40-80,,0.0,trumpet,hat,40.0,80.0,trumpet2,hat12,40.0,60.0,Matt-Stevens-Pocket-Trumpet.jpg,Aformalhat5.jpg,/static/Category_learning/Stimuli/Experimental_stims/trumpet/Matt-Stevens-Pocket-Trumpet.jpg,/static/Category_learning/Stimuli/Experimental_stims/hat/Aformalhat5.jpg,1.0,trumpet,hat,40.0,80.0,trumpet2,hat12,40.0,60.0,0.0,63.346000000000004,0.846,,,,,,
378,,confirmation,,html-keyboard-response,378,225427,0.0-1.0-71.0-0.0-1.0-0.0,0,0,76970,,,,,,69.0,,,,,,,,,,,,,,,,,,,,,,,,,,,,,,,,64.0,0.654,,,,,,
379,,isi,,html-keyboard-response,379,225531,0.0-1.0-71.0-0.0-2.0,0,0,76970,,,,,,,,,,,,,,,,,,,,,,,,,,,,,,,,,,,,,,65.0,1.0,,,,,,
380,,feedback,,html-keyboard-response,380,226535,0.0-1.0-71.0-0.0-3.0-0.0,0,0,76970,,,,,,69.0,,,,,,,,,,,,,,,,,,,,,,,,,,,,,,,,66.0,1.0,,,,,,
381,,iti,,html-keyboard-response,381,226642,0.0-1.0-71.0-0.0-5.0,0,0,76970,,,,,,,,,,,,,,,,,,,,,,,,,,,,,,,,,,,,,,67.0,1.0,,,,,,
382,,choice,,html-keyboard-response,382,227441,0.0-1.0-72.0-0.0-0.0,0,0,76970,,796.0,,,75.0,70.0,76.0,1000.0,1000.0,0.0,2.0,0.0,20-40,,1.0,trumpet,poker card,40.0,20.0,trumpet1,poker card2,60.0,40.0,JUPITER+TROMPETTE+606MRL.JPG,22864716.thl.jpg,/static/Category_learning/Stimuli/Experimental_stims/trumpet/JUPITER+TROMPETTE+606MRL.JPG,/static/Category_learning/Stimuli/Experimental_stims/poker card/22864716.thl.jpg,0.0,poker card,trumpet,20.0,40.0,poker card2,trumpet1,40.0,60.0,0.0,67.796,0.7959999999999999,,,,,,
383,,confirmation,,html-keyboard-response,383,228148,0.0-1.0-72.0-0.0-1.0-0.0,0,0,76970,,,,,,70.0,,,,,,,,,,,,,,,,,,,,,,,,,,,,,,,,68.5,0.7040000000000001,,,,,,
384,,isi,,html-keyboard-response,384,228255,0.0-1.0-72.0-0.0-2.0,0,0,76970,,,,,,,,,,,,,,,,,,,,,,,,,,,,,,,,,,,,,,69.5,1.0,,,,,,
385,,feedback,,html-keyboard-response,385,229261,0.0-1.0-72.0-0.0-3.0-0.0,0,0,76970,,,,,,70.0,,,,,,,,,,,,,,,,,,,,,,,,,,,,,,,,70.5,1.0,,,,,,
386,,iti,,html-keyboard-response,386,229365,0.0-1.0-72.0-0.0-5.0,0,0,76970,,,,,,,,,,,,,,,,,,,,,,,,,,,,,,,,,,,,,,71.5,1.0,,,,,,
387,,choice,,html-keyboard-response,387,230272,0.0-1.0-73.0-0.0-0.0,0,0,76970,,903.0,,,75.0,71.0,77.0,1500.0,1000.0,0.0,2.0,0.0,20-80,,1.0,microscope,necklace,80.0,20.0,microscope5,necklace4,100.0,20.0,emMicroscope.jpg,emerald_diamond_necklace.jpg,/static/Category_learning/Stimuli/Experimental_stims/microscope/emMicroscope.jpg,/static/Category_learning/Stimuli/Experimental_stims/necklace/emerald_diamond_necklace.jpg,0.0,necklace,microscope,20.0,80.0,necklace4,microscope5,20.0,100.0,0.0,72.403,0.903,,,,,,
388,,confirmation,,html-keyboard-response,388,230874,0.0-1.0-73.0-0.0-1.0-0.0,0,0,76970,,,,,,71.0,,,,,,,,,,,,,,,,,,,,,,,,,,,,,,,,73.0,0.597,,,,,,
389,,isi,,html-keyboard-response,389,230980,0.0-1.0-73.0-0.0-2.0,0,0,76970,,,,,,,,,,,,,,,,,,,,,,,,,,,,,,,,,,,,,,74.5,1.5,,,,,,
390,,feedback,,html-keyboard-response,390,231985,0.0-1.0-73.0-0.0-3.0-0.0,0,0,76970,,,,,,71.0,,,,,,,,,,,,,,,,,,,,,,,,,,,,,,,,75.5,1.0,,,,,,
391,,iti,,html-keyboard-response,391,232090,0.0-1.0-73.0-0.0-5.0,0,0,76970,,,,,,,,,,,,,,,,,,,,,,,,,,,,,,,,,,,,,,76.5,1.0,,,,,,
392,,choice,,html-keyboard-response,392,232758,0.0-1.0-74.0-0.0-0.0,0,0,76970,,665.0,,,75.0,72.0,78.0,1500.0,2000.0,0.0,2.0,1.0,80-80,1.0,,hat,hat,80.0,80.0,hat3,hat2,100.0,100.0,Astrawhat49.jpg,Ahatwithfeat7.jpg,/static/Category_learning/Stimuli/Experimental_stims/hat/Astrawhat49.jpg,/static/Category_learning/Stimuli/Experimental_stims/hat/Ahatwithfeat7.jpg,0.0,hat,hat,80.0,80.0,hat2,hat3,100.0,100.0,0.0,77.165,0.665,,,,,,
393,,confirmation,,html-keyboard-response,393,233596,0.0-1.0-74.0-0.0-1.0-0.0,0,0,76970,,,,,,72.0,,,,,,,,,,,,,,,,,,,,,,,,,,,,,,,,78.0,0.835,,,,,,
394,,isi,,html-keyboard-response,394,233700,0.0-1.0-74.0-0.0-2.0,0,0,76970,,,,,,,,,,,,,,,,,,,,,,,,,,,,,,,,,,,,,,79.5,1.5,,,,,,
395,,feedback,,html-keyboard-response,395,234703,0.0-1.0-74.0-0.0-3.0-0.0,0,0,76970,,,,,,72.0,,,,,,,,,,,,,,,,,,,,,,,,,,,,,,,,80.5,1.0,,,,,,
396,,iti,,html-keyboard-response,396,234806,0.0-1.0-74.0-0.0-5.0,0,0,76970,,,,,,,,,,,,,,,,,,,,,,,,,,,,,,,,,,,,,,82.5,2.0,,,,,,
397,,choice,,html-keyboard-response,397,235180,0.0-1.0-75.0-0.0-0.0,0,0,76970,,372.0,,,68.0,73.0,79.0,1500.0,3500.0,0.0,2.0,1.0,40-40,1.0,,trumpet,trumpet,40.0,40.0,trumpet2,trumpet8,40.0,60.0,Matt-Stevens-Pocket-Trumpet.jpg,trumpet33.jpg,/static/Category_learning/Stimuli/Experimental_stims/trumpet/Matt-Stevens-Pocket-Trumpet.jpg,/static/Category_learning/Stimuli/Experimental_stims/trumpet/trumpet33.jpg,1.0,trumpet,trumpet,40.0,40.0,trumpet2,trumpet8,40.0,60.0,0.0,82.87200000000001,0.37200000000000005,,,,,,
398,,confirmation,,html-keyboard-response,398,236312,0.0-1.0-75.0-0.0-1.0-0.0,0,0,76970,,,,,,73.0,,,,,,,,,,,,,,,,,,,,,,,,,,,,,,,,84.0,1.128,,,,,,
399,,isi,,html-keyboard-response,399,236416,0.0-1.0-75.0-0.0-2.0,0,0,76970,,,,,,,,,,,,,,,,,,,,,,,,,,,,,,,,,,,,,,85.5,1.5,,,,,,
400,,feedback,,html-keyboard-response,400,237423,0.0-1.0-75.0-0.0-3.0-0.0,0,0,76970,,,,,,73.0,,,,,,,,,,,,,,,,,,,,,,,,,,,,,,,,86.5,1.0,,,,,,
401,,iti,,html-keyboard-response,401,237529,0.0-1.0-75.0-0.0-5.0,0,0,76970,,,,,,,,,,,,,,,,,,,,,,,,,,,,,,,,,,,,,,90.0,3.5,,,,,,
402,,choice,,html-keyboard-response,402,239035,0.0-1.0-76.0-0.0-0.0,0,0,76970,,,,,,74.0,80.0,1000.0,2000.0,0.0,2.0,0.0,20-80,,0.0,pen,key chain,20.0,80.0,pen6,key chain13,40.0,100.0,executive_pen2.jpg,Fancy_Liquid_Column_Shape_Key_Ring_with_Floater.jpg,/static/Category_learning/Stimuli/Experimental_stims/pen/executive_pen2.jpg,/static/Category_learning/Stimuli/Experimental_stims/key chain/Fancy_Liquid_Column_Shape_Key_Ring_with_Floater.jpg,,,,,,,,,,1.0,91.5,1.5,,,,,,
403,,isi,,html-keyboard-response,403,239140,0.0-1.0-76.0-0.0-2.0,0,0,76970,,,,,,,,,,,,,,,,,,,,,,,,,,,,,,,,,,,,,,92.5,1.0,,,,,,
404,,no_response,,html-keyboard-response,404,240145,0.0-1.0-76.0-0.0-4.0-0.0,0,0,76970,,,,,,,,,,,,,,,,,,,,,,,,,,,,,,,,,,,,,,93.5,1.0,,,,,,
405,,iti,,html-keyboard-response,405,240272,0.0-1.0-76.0-0.0-5.0,0,0,76970,,,,,,,,,,,,,,,,,,,,,,,,,,,,,,,,,,,,,,95.5,2.0,,,,,,
406,,choice,,html-keyboard-response,406,241780,0.0-1.0-76.0-0.1-0.1,0,0,76970,,,,,,74.0,80.0,1000.0,2000.0,0.0,2.0,0.0,20-80,,0.0,pen,key chain,20.0,80.0,pen6,key chain13,40.0,100.0,executive_pen2.jpg,Fancy_Liquid_Column_Shape_Key_Ring_with_Floater.jpg,/static/Category_learning/Stimuli/Experimental_stims/pen/executive_pen2.jpg,/static/Category_learning/Stimuli/Experimental_stims/key chain/Fancy_Liquid_Column_Shape_Key_Ring_with_Floater.jpg,,,,,,,,,,1.0,97.0,1.5,,,,,,
407,,isi,,html-keyboard-response,407,241884,0.0-1.0-76.0-0.1-2.1,0,0,76970,,,,,,,,,,,,,,,,,,,,,,,,,,,,,,,,,,,,,,98.5,1.5,,,,,,
408,,no_response,,html-keyboard-response,408,242887,0.0-1.0-76.0-0.1-4.1-0.1,0,0,76970,,,,,,,,,,,,,,,,,,,,,,,,,,,,,,,,,,,,,,99.5,1.0,,,,,,
409,,iti,,html-keyboard-response,409,243007,0.0-1.0-76.0-0.1-5.1,0,0,76970,,,,,,,,,,,,,,,,,,,,,,,,,,,,,,,,,,,,,,100.5,1.0,,,,,,
410,,choice,,html-keyboard-response,410,243808,0.0-1.0-76.0-0.2-0.2,0,0,76970,,798.0,,,68.0,74.0,80.0,1000.0,2000.0,0.0,2.0,0.0,20-80,,0.0,pen,key chain,20.0,80.0,pen6,key chain13,40.0,100.0,executive_pen2.jpg,Fancy_Liquid_Column_Shape_Key_Ring_with_Floater.jpg,/static/Category_learning/Stimuli/Experimental_stims/pen/executive_pen2.jpg,/static/Category_learning/Stimuli/Experimental_stims/key chain/Fancy_Liquid_Column_Shape_Key_Ring_with_Floater.jpg,1.0,pen,key chain,20.0,80.0,pen6,key chain13,40.0,100.0,0.0,101.29799999999999,0.7979999999999999,,,,,,
411,,confirmation,,html-keyboard-response,411,244514,0.0-1.0-76.0-0.2-1.2-0.2,0,0,76970,,,,,,74.0,,,,,,,,,,,,,,,,,,,,,,,,,,,,,,,,102.0,0.7020000000000001,,,,,,
412,,isi,,html-keyboard-response,412,244619,0.0-1.0-76.0-0.2-2.2,0,0,76970,,,,,,,,,,,,,,,,,,,,,,,,,,,,,,,,,,,,,,104.0,2.0,,,,,,
413,,feedback,,html-keyboard-response,413,245624,0.0-1.0-76.0-0.2-3.2-0.2,0,0,76970,,,,,,74.0,,,,,,,,,,,,,,,,,,,,,,,,,,,,,,,,105.0,1.0,,,,,,
414,,iti,,html-keyboard-response,414,245729,0.0-1.0-76.0-0.2-5.2,0,0,76970,,,,,,,,,,,,,,,,,,,,,,,,,,,,,,,,,,,,,,106.0,1.0,,,,,,
415,,choice,,html-keyboard-response,415,246429,0.0-1.0-77.0-0.0-0.0,0,0,76970,,697.0,,,68.0,75.0,81.0,3500.0,2000.0,0.0,2.0,0.0,60-60,,,bowl,bench,60.0,60.0,bowl7,bench2,80.0,60.0,Abowl54.jpg,26369969.thl.jpg,/static/Category_learning/Stimuli/Experimental_stims/bowl/Abowl54.jpg,/static/Category_learning/Stimuli/Experimental_stims/bench/26369969.thl.jpg,1.0,bowl,bench,60.0,60.0,bowl7,bench2,80.0,60.0,0.0,106.697,0.6970000000000001,,,,,,
416,,confirmation,,html-keyboard-response,416,247237,0.0-1.0-77.0-0.0-1.0-0.0,0,0,76970,,,,,,75.0,,,,,,,,,,,,,,,,,,,,,,,,,,,,,,,,107.5,0.8029999999999999,,,,,,
417,,isi,,html-keyboard-response,417,247340,0.0-1.0-77.0-0.0-2.0,0,0,76970,,,,,,,,,,,,,,,,,,,,,,,,,,,,,,,,,,,,,,111.0,3.5,,,,,,
418,,feedback,,html-keyboard-response,418,248344,0.0-1.0-77.0-0.0-3.0-0.0,0,0,76970,,,,,,75.0,,,,,,,,,,,,,,,,,,,,,,,,,,,,,,,,112.0,1.0,,,,,,
419,,iti,,html-keyboard-response,419,248447,0.0-1.0-77.0-0.0-5.0,0,0,76970,,,,,,,,,,,,,,,,,,,,,,,,,,,,,,,,,,,,,,114.0,2.0,,,,,,
420,,choice,,html-keyboard-response,420,248972,0.0-1.0-78.0-0.0-0.0,0,0,76970,,521.0,,,68.0,76.0,82.0,1000.0,1500.0,0.0,2.0,0.0,60-80,,1.0,frame,bench,80.0,60.0,frame14,bench1,80.0,40.0,AFRAME129.jpg,26419975.thl.jpg,/static/Category_learning/Stimuli/Experimental_stims/frame/AFRAME129.jpg,/static/Category_learning/Stimuli/Experimental_stims/bench/26419975.thl.jpg,1.0,frame,bench,80.0,60.0,frame14,bench1,80.0,40.0,0.0,114.521,0.521,,,,,,
421,,confirmation,,html-keyboard-response,421,249958,0.0-1.0-78.0-0.0-1.0-0.0,0,0,76970,,,,,,76.0,,,,,,,,,,,,,,,,,,,,,,,,,,,,,,,,115.5,0.9790000000000001,,,,,,
422,,isi,,html-keyboard-response,422,250061,0.0-1.0-78.0-0.0-2.0,0,0,76970,,,,,,,,,,,,,,,,,,,,,,,,,,,,,,,,,,,,,,116.5,1.0,,,,,,
423,,feedback,,html-keyboard-response,423,251067,0.0-1.0-78.0-0.0-3.0-0.0,0,0,76970,,,,,,76.0,,,,,,,,,,,,,,,,,,,,,,,,,,,,,,,,117.5,1.0,,,,,,
424,,iti,,html-keyboard-response,424,251170,0.0-1.0-78.0-0.0-5.0,0,0,76970,,,,,,,,,,,,,,,,,,,,,,,,,,,,,,,,,,,,,,119.0,1.5,,,,,,
425,,choice,,html-keyboard-response,425,251179,0.0-1.0-79.0-0.0-0.0,0,0,76970,,5.0,,,68.0,77.0,83.0,1500.0,1000.0,0.0,2.0,0.0,20-80,,1.0,key chain,poker card,80.0,20.0,key chain6,poker card12,80.0,20.0,highboy_keychain_ItemCA75384.jpg,22865676.thl.jpg,/static/Category_learning/Stimuli/Experimental_stims/key chain/highboy_keychain_ItemCA75384.jpg,/static/Category_learning/Stimuli/Experimental_stims/poker card/22865676.thl.jpg,1.0,key chain,poker card,80.0,20.0,key chain6,poker card12,80.0,20.0,0.0,119.005,0.005,,,,,,
426,,confirmation,,html-keyboard-response,426,252681,0.0-1.0-79.0-0.0-1.0-0.0,0,0,76970,,,,,,77.0,,,,,,,,,,,,,,,,,,,,,,,,,,,,,,,,120.5,1.495,,,,,,
427,,isi,,html-keyboard-response,427,252784,0.0-1.0-79.0-0.0-2.0,0,0,76970,,,,,,,,,,,,,,,,,,,,,,,,,,,,,,,,,,,,,,122.0,1.5,,,,,,
428,,feedback,,html-keyboard-response,428,253789,0.0-1.0-79.0-0.0-3.0-0.0,0,0,76970,,,,,,77.0,,,,,,,,,,,,,,,,,,,,,,,,,,,,,,,,123.0,1.0,,,,,,
429,,iti,,html-keyboard-response,429,253892,0.0-1.0-79.0-0.0-5.0,0,0,76970,,,,,,,,,,,,,,,,,,,,,,,,,,,,,,,,,,,,,,124.0,1.0,,,,,,
430,,choice,,html-keyboard-response,430,254790,0.0-1.0-80.0-0.0-0.0,0,0,76970,,894.0,,,68.0,78.0,84.0,2000.0,1500.0,0.0,2.0,0.0,20-60,,0.0,poker card,bowl,20.0,60.0,poker card6,bowl1,40.0,40.0,22864212.thl.jpg,ABOWLS6.jpg,/static/Category_learning/Stimuli/Experimental_stims/poker card/22864212.thl.jpg,/static/Category_learning/Stimuli/Experimental_stims/bowl/ABOWLS6.jpg,1.0,poker card,bowl,20.0,60.0,poker card6,bowl1,40.0,40.0,0.0,124.89399999999999,0.894,,,,,,
431,,confirmation,,html-keyboard-response,431,255403,0.0-1.0-80.0-0.0-1.0-0.0,0,0,76970,,,,,,78.0,,,,,,,,,,,,,,,,,,,,,,,,,,,,,,,,125.5,0.606,,,,,,
432,,isi,,html-keyboard-response,432,255511,0.0-1.0-80.0-0.0-2.0,0,0,76970,,,,,,,,,,,,,,,,,,,,,,,,,,,,,,,,,,,,,,127.5,2.0,,,,,,
433,,feedback,,html-keyboard-response,433,256520,0.0-1.0-80.0-0.0-3.0-0.0,0,0,76970,,,,,,78.0,,,,,,,,,,,,,,,,,,,,,,,,,,,,,,,,128.5,1.0,,,,,,
434,,iti,,html-keyboard-response,434,256624,0.0-1.0-80.0-0.0-5.0,0,0,76970,,,,,,,,,,,,,,,,,,,,,,,,,,,,,,,,,,,,,,130.0,1.5,,,,,,
435,,choice,,html-keyboard-response,435,258025,0.0-1.0-81.0-0.0-0.0,0,0,76970,,1396.0,,,68.0,79.0,85.0,1500.0,3500.0,0.0,2.0,1.0,40-40,1.0,,tent,tent,40.0,40.0,tent2,tent14,40.0,20.0,Atent16.jpg,inflatable-tent.jpg,/static/Category_learning/Stimuli/Experimental_stims/tent/Atent16.jpg,/static/Category_learning/Stimuli/Experimental_stims/tent/inflatable-tent.jpg,1.0,tent,tent,40.0,40.0,tent2,tent14,40.0,20.0,0.0,131.39600000000002,1.396,,,,,,
436,,confirmation,,html-keyboard-response,436,258133,0.0-1.0-81.0-0.0-1.0-0.0,0,0,76970,,,,,,79.0,,,,,,,,,,,,,,,,,,,,,,,,,,,,,,,,131.5,0.10400000000000001,,,,,,
437,,isi,,html-keyboard-response,437,258236,0.0-1.0-81.0-0.0-2.0,0,0,76970,,,,,,,,,,,,,,,,,,,,,,,,,,,,,,,,,,,,,,133.0,1.5,,,,,,
438,,feedback,,html-keyboard-response,438,259241,0.0-1.0-81.0-0.0-3.0-0.0,0,0,76970,,,,,,79.0,,,,,,,,,,,,,,,,,,,,,,,,,,,,,,,,134.0,1.0,,,,,,
439,,iti,,html-keyboard-response,439,259347,0.0-1.0-81.0-0.0-5.0,0,0,76970,,,,,,,,,,,,,,,,,,,,,,,,,,,,,,,,,,,,,,137.5,3.5,,,,,,
440,,choice,,html-keyboard-response,440,259718,0.0-1.0-82.0-0.0-0.0,0,0,76970,,367.0,,,75.0,80.0,86.0,1000.0,1000.0,0.0,2.0,0.0,40-80,,1.0,frame,tape,80.0,40.0,frame1,tape11,80.0,20.0,AFRAME127.jpg,41FZA73H4JL._AA280_.jpg,/static/Category_learning/Stimuli/Experimental_stims/frame/AFRAME127.jpg,/static/Category_learning/Stimuli/Experimental_stims/tape/41FZA73H4JL._AA280_.jpg,0.0,tape,frame,40.0,80.0,tape11,frame1,20.0,80.0,0.0,137.86700000000002,0.36700000000000005,,,,,,
441,,confirmation,,html-keyboard-response,441,260856,0.0-1.0-82.0-0.0-1.0-0.0,0,0,76970,,,,,,80.0,,,,,,,,,,,,,,,,,,,,,,,,,,,,,,,,139.0,1.133,,,,,,
442,,isi,,html-keyboard-response,442,260963,0.0-1.0-82.0-0.0-2.0,0,0,76970,,,,,,,,,,,,,,,,,,,,,,,,,,,,,,,,,,,,,,140.0,1.0,,,,,,
443,,feedback,,html-keyboard-response,443,261970,0.0-1.0-82.0-0.0-3.0-0.0,0,0,76970,,,,,,80.0,,,,,,,,,,,,,,,,,,,,,,,,,,,,,,,,141.0,1.0,,,,,,
444,,iti,,html-keyboard-response,444,262074,0.0-1.0-82.0-0.0-5.0,0,0,76970,,,,,,,,,,,,,,,,,,,,,,,,,,,,,,,,,,,,,,142.0,1.0,,,,,,
445,,choice,,html-keyboard-response,445,262727,0.0-1.0-83.0-0.0-0.0,0,0,76970,,651.0,,,75.0,81.0,87.0,1500.0,1000.0,0.0,2.0,0.0,20-60,,1.0,bowl,seashell,60.0,20.0,bowl12,seashell1,40.0,0.0,Abowl52.jpg,Aseashe34.jpg,/static/Category_learning/Stimuli/Experimental_stims/bowl/Abowl52.jpg,/static/Category_learning/Stimuli/Experimental_stims/seashell/Aseashe34.jpg,0.0,seashell,bowl,20.0,60.0,seashell1,bowl12,0.0,40.0,0.0,142.651,0.6509999999999999,,,,,,
446,,confirmation,,html-keyboard-response,446,263583,0.0-1.0-83.0-0.0-1.0-0.0,0,0,76970,,,,,,81.0,,,,,,,,,,,,,,,,,,,,,,,,,,,,,,,,143.5,0.8490000000000001,,,,,,
447,,isi,,html-keyboard-response,447,263688,0.0-1.0-83.0-0.0-2.0,0,0,76970,,,,,,,,,,,,,,,,,,,,,,,,,,,,,,,,,,,,,,145.0,1.5,,,,,,
448,,feedback,,html-keyboard-response,448,264694,0.0-1.0-83.0-0.0-3.0-0.0,0,0,76970,,,,,,81.0,,,,,,,,,,,,,,,,,,,,,,,,,,,,,,,,146.0,1.0,,,,,,
449,,iti,,html-keyboard-response,449,264801,0.0-1.0-83.0-0.0-5.0,0,0,76970,,,,,,,,,,,,,,,,,,,,,,,,,,,,,,,,,,,,,,147.0,1.0,,,,,,
450,,choice,,html-keyboard-response,450,265332,0.0-1.0-84.0-0.0-0.0,0,0,76970,,528.0,,,68.0,82.0,88.0,1500.0,1000.0,0.0,2.0,0.0,40-60,,1.0,desk,watch,60.0,40.0,desk2,watch15,80.0,40.0,AA Luffield Radial crescent Desk 1600mm x 1200mm.jpg,20-171-6.jpg,/static/Category_learning/Stimuli/Experimental_stims/desk/AA Luffield Radial crescent Desk 1600mm x 1200mm.jpg,/static/Category_learning/Stimuli/Experimental_stims/watch/20-171-6.jpg,1.0,desk,watch,60.0,40.0,desk2,watch15,80.0,40.0,0.0,147.528,0.528,,,,,,
451,,confirmation,,html-keyboard-response,451,266307,0.0-1.0-84.0-0.0-1.0-0.0,0,0,76970,,,,,,82.0,,,,,,,,,,,,,,,,,,,,,,,,,,,,,,,,148.5,0.972,,,,,,
452,,isi,,html-keyboard-response,452,266413,0.0-1.0-84.0-0.0-2.0,0,0,76970,,,,,,,,,,,,,,,,,,,,,,,,,,,,,,,,,,,,,,150.0,1.5,,,,,,
453,,feedback,,html-keyboard-response,453,267420,0.0-1.0-84.0-0.0-3.0-0.0,0,0,76970,,,,,,82.0,,,,,,,,,,,,,,,,,,,,,,,,,,,,,,,,151.0,1.0,,,,,,
454,,iti,,html-keyboard-response,454,267522,0.0-1.0-84.0-0.0-5.0,0,0,76970,,,,,,,,,,,,,,,,,,,,,,,,,,,,,,,,,,,,,,152.0,1.0,,,,,,
455,,choice,,html-keyboard-response,455,267826,0.0-1.0-85.0-0.0-0.0,0,0,76970,,300.0,,,68.0,83.0,89.0,1000.0,3000.0,0.0,2.0,1.0,80-80,1.0,,frame,frame,80.0,80.0,frame14,frame11,80.0,100.0,AFRAME129.jpg,AFRAME139.jpg,/static/Category_learning/Stimuli/Experimental_stims/frame/AFRAME129.jpg,/static/Category_learning/Stimuli/Experimental_stims/frame/AFRAME139.jpg,1.0,frame,frame,80.0,80.0,frame14,frame11,80.0,100.0,0.0,152.3,0.3,,,,,,
456,,confirmation,,html-keyboard-response,456,269029,0.0-1.0-85.0-0.0-1.0-0.0,0,0,76970,,,,,,83.0,,,,,,,,,,,,,,,,,,,,,,,,,,,,,,,,153.5,1.2,,,,,,
457,,isi,,html-keyboard-response,457,269132,0.0-1.0-85.0-0.0-2.0,0,0,76970,,,,,,,,,,,,,,,,,,,,,,,,,,,,,,,,,,,,,,154.5,1.0,,,,,,
458,,feedback,,html-keyboard-response,458,270137,0.0-1.0-85.0-0.0-3.0-0.0,0,0,76970,,,,,,83.0,,,,,,,,,,,,,,,,,,,,,,,,,,,,,,,,155.5,1.0,,,,,,
459,,iti,,html-keyboard-response,459,270241,0.0-1.0-85.0-0.0-5.0,0,0,76970,,,,,,,,,,,,,,,,,,,,,,,,,,,,,,,,,,,,,,158.5,3.0,,,,,,
460,,choice,,html-keyboard-response,460,270678,0.0-1.0-86.0-0.0-0.0,0,0,76970,,433.0,,,75.0,84.0,90.0,1000.0,1000.0,0.0,2.0,0.0,40-60,,0.0,tape,dresser,40.0,60.0,tape1,dresser2,20.0,80.0,aktotape_01.jpg,ADRESSE46.jpg,/static/Category_learning/Stimuli/Experimental_stims/tape/aktotape_01.jpg,/static/Category_learning/Stimuli/Experimental_stims/dresser/ADRESSE46.jpg,0.0,dresser,tape,60.0,40.0,dresser2,tape1,80.0,20.0,0.0,158.933,0.433,,,,,,
461,,confirmation,,html-keyboard-response,461,271751,0.0-1.0-86.0-0.0-1.0-0.0,0,0,76970,,,,,,84.0,,,,,,,,,,,,,,,,,,,,,,,,,,,,,,,,160.0,1.067,,,,,,
462,,isi,,html-keyboard-response,462,271858,0.0-1.0-86.0-0.0-2.0,0,0,76970,,,,,,,,,,,,,,,,,,,,,,,,,,,,,,,,,,,,,,161.0,1.0,,,,,,
463,,feedback,,html-keyboard-response,463,272862,0.0-1.0-86.0-0.0-3.0-0.0,0,0,76970,,,,,,84.0,,,,,,,,,,,,,,,,,,,,,,,,,,,,,,,,162.0,1.0,,,,,,
464,,iti,,html-keyboard-response,464,272969,0.0-1.0-86.0-0.0-5.0,0,0,76970,,,,,,,,,,,,,,,,,,,,,,,,,,,,,,,,,,,,,,163.0,1.0,,,,,,
465,,choice,,html-keyboard-response,465,273115,0.0-1.0-87.0-0.0-0.0,0,0,76970,,143.0,,,75.0,85.0,91.0,2000.0,1000.0,0.0,2.0,0.0,80-80,,,lipstick,frame,80.0,80.0,lipstick3,frame6,80.0,60.0,31sCvjMS3jL._SS500_.jpg,AFRAME123.jpg,/static/Category_learning/Stimuli/Experimental_stims/lipstick/31sCvjMS3jL._SS500_.jpg,/static/Category_learning/Stimuli/Experimental_stims/frame/AFRAME123.jpg,0.0,frame,lipstick,80.0,80.0,frame6,lipstick3,60.0,80.0,0.0,163.143,0.14300000000000002,,,,,,
466,,confirmation,,html-keyboard-response,466,274476,0.0-1.0-87.0-0.0-1.0-0.0,0,0,76970,,,,,,85.0,,,,,,,,,,,,,,,,,,,,,,,,,,,,,,,,164.5,1.357,,,,,,
467,,isi,,html-keyboard-response,467,274583,0.0-1.0-87.0-0.0-2.0,0,0,76970,,,,,,,,,,,,,,,,,,,,,,,,,,,,,,,,,,,,,,166.5,2.0,,,,,,
468,,feedback,,html-keyboard-response,468,275588,0.0-1.0-87.0-0.0-3.0-0.0,0,0,76970,,,,,,85.0,,,,,,,,,,,,,,,,,,,,,,,,,,,,,,,,167.5,1.0,,,,,,
469,,iti,,html-keyboard-response,469,275694,0.0-1.0-87.0-0.0-5.0,0,0,76970,,,,,,,,,,,,,,,,,,,,,,,,,,,,,,,,,,,,,,168.5,1.0,,,,,,
470,,choice,,html-keyboard-response,470,276122,0.0-1.0-88.0-0.0-0.0,0,0,76970,,424.0,,,75.0,86.0,92.0,1500.0,1500.0,0.0,2.0,0.0,40-80,,0.0,yarn,hat,40.0,80.0,yarn9,hat9,60.0,100.0,Aballofyarn26.jpg,Astrawhat44.jpg,/static/Category_learning/Stimuli/Experimental_stims/yarn/Aballofyarn26.jpg,/static/Category_learning/Stimuli/Experimental_stims/hat/Astrawhat44.jpg,0.0,hat,yarn,80.0,40.0,hat9,yarn9,100.0,60.0,0.0,168.924,0.424,,,,,,
471,,confirmation,,html-keyboard-response,471,277206,0.0-1.0-88.0-0.0-1.0-0.0,0,0,76970,,,,,,86.0,,,,,,,,,,,,,,,,,,,,,,,,,,,,,,,,170.0,1.0759999999999998,,,,,,
472,,isi,,html-keyboard-response,472,277313,0.0-1.0-88.0-0.0-2.0,0,0,76970,,,,,,,,,,,,,,,,,,,,,,,,,,,,,,,,,,,,,,171.5,1.5,,,,,,
473,,feedback,,html-keyboard-response,473,278316,0.0-1.0-88.0-0.0-3.0-0.0,0,0,76970,,,,,,86.0,,,,,,,,,,,,,,,,,,,,,,,,,,,,,,,,172.5,1.0,,,,,,
474,,iti,,html-keyboard-response,474,278421,0.0-1.0-88.0-0.0-5.0,0,0,76970,,,,,,,,,,,,,,,,,,,,,,,,,,,,,,,,,,,,,,174.0,1.5,,,,,,
475,,choice,,html-keyboard-response,475,279130,0.0-1.0-89.0-0.0-0.0,0,0,76970,,705.0,,,68.0,87.0,93.0,1000.0,1000.0,0.0,2.0,0.0,20-80,,0.0,power strip,motorcycle,20.0,80.0,power strip7,motorcycle13,20.0,80.0,412YZ25RFBL._AA262_.jpg,2005-Buell-FireboltXB12R.jpg,/static/Category_learning/Stimuli/Experimental_stims/power strip/412YZ25RFBL._AA262_.jpg,/static/Category_learning/Stimuli/Experimental_stims/motorcycle/2005-Buell-FireboltXB12R.jpg,1.0,power strip,motorcycle,20.0,80.0,power strip7,motorcycle13,20.0,80.0,0.0,174.705,0.705,,,,,,
476,,confirmation,,html-keyboard-response,476,279928,0.0-1.0-89.0-0.0-1.0-0.0,0,0,76970,,,,,,87.0,,,,,,,,,,,,,,,,,,,,,,,,,,,,,,,,175.5,0.795,,,,,,
477,,isi,,html-keyboard-response,477,280032,0.0-1.0-89.0-0.0-2.0,0,0,76970,,,,,,,,,,,,,,,,,,,,,,,,,,,,,,,,,,,,,,176.5,1.0,,,,,,
478,,feedback,,html-keyboard-response,478,281038,0.0-1.0-89.0-0.0-3.0-0.0,0,0,76970,,,,,,87.0,,,,,,,,,,,,,,,,,,,,,,,,,,,,,,,,177.5,1.0,,,,,,
479,,iti,,html-keyboard-response,479,281144,0.0-1.0-89.0-0.0-5.0,0,0,76970,,,,,,,,,,,,,,,,,,,,,,,,,,,,,,,,,,,,,,178.5,1.0,,,,,,
480,,choice,,html-keyboard-response,480,281685,0.0-1.0-90.0-0.0-0.0,0,0,76970,,538.0,,,68.0,88.0,94.0,1000.0,2000.0,0.0,2.0,0.0,40-80,,0.0,telescope,makeup compact,40.0,80.0,telescope9,makeup compact11,60.0,100.0,13TELESTAND.jpg,P190255_hero.jpg,/static/Category_learning/Stimuli/Experimental_stims/telescope/13TELESTAND.jpg,/static/Category_learning/Stimuli/Experimental_stims/makeup compact/P190255_hero.jpg,1.0,telescope,makeup compact,40.0,80.0,telescope9,makeup compact11,60.0,100.0,0.0,179.03799999999998,0.5379999999999999,,,,,,
481,,confirmation,,html-keyboard-response,481,282652,0.0-1.0-90.0-0.0-1.0-0.0,0,0,76970,,,,,,88.0,,,,,,,,,,,,,,,,,,,,,,,,,,,,,,,,180.0,0.9620000000000001,,,,,,
482,,isi,,html-keyboard-response,482,282757,0.0-1.0-90.0-0.0-2.0,0,0,76970,,,,,,,,,,,,,,,,,,,,,,,,,,,,,,,,,,,,,,181.0,1.0,,,,,,
483,,feedback,,html-keyboard-response,483,283762,0.0-1.0-90.0-0.0-3.0-0.0,0,0,76970,,,,,,88.0,,,,,,,,,,,,,,,,,,,,,,,,,,,,,,,,182.0,1.0,,,,,,
484,,iti,,html-keyboard-response,484,283869,0.0-1.0-90.0-0.0-5.0,0,0,76970,,,,,,,,,,,,,,,,,,,,,,,,,,,,,,,,,,,,,,184.0,2.0,,,,,,
