,success,ttype,start_time,trial_type,trial_index,time_elapsed,internal_node_id,warning,missed_checkup,PID,view_history,rt,responses,repeat_instructions,key_press,index,trial_num,block,iti,pair_type,high_size_on_left,left_size_group,right_size_group,left_size_num,right_size_num,left_category,right_category,left_exemplar,right_exemplar,left_index,right_index,left_img_path,right_img_path,accuracy,onset,duration,no_response,left_chosen,chosen_category,unchosen_category,chosen_size_group,unchosen_size_group,chosen_size_num,unchosen_size_num,chosen_exemplar,unchosen_exemplar,size_final_tally
0,True,full_screen,d06072022hr1211,fullscreen,0,4275,0.0-0.0,0,0,76870,,,,,,,,,,,,,,,,,,,,,,,,,,,,,,,,,,,,,
1,,size_instructions,,instructions,1,56227,0.0-1.0-0.0-0.0,0,0,76870,"[{""page_index"":0,""viewing_time"":9460},{""page_index"":1,""viewing_time"":7008},{""page_index"":2,""viewing_time"":18352},{""page_index"":3,""viewing_time"":3272},{""page_index"":4,""viewing_time"":11384},{""page_index"":5,""viewing_time"":2472}]",51949.0,,,,,,,,,,,,,,,,,,,,,,,,,,,,,,,,,,,
2,,size_comprehension_check,,survey-multi-choice,2,79467,0.0-1.0-0.0-1.0,0,0,76870,,23235.0,"{""Q0"":""True"",""Q1"":""Size in the real world"",""Q2"":""True"",""Q3"":""D for left and K for right""}",0.0,,,,,,,,,,,,,,,,,,,,,,,,,,,,,,,,,
3,,,,html-keyboard-response,3,81649,0.0-1.0-1.0,0,0,76870,,2175.0,,,68.0,,,,,,,,,,,,,,,,,,,,,,,,,,,,,,,,
4,,size_choice,,html-keyboard-response,4,83153,0.0-1.0-2.0,0,0,76870,,,,,,0.0,0.0,1.0,1000.0,L-L,,L,L,3.0,3.0,dishwasher,garbagecan,dishwasher9,garbagecan9,28.0,38.0,/static/Size_judgement/Stimuli/Size_stims/L/dishwasher/dishwasher2.jpg,/static/Size_judgement/Stimuli/Size_stims/L/garbagecan/garbagecan12.jpg,,1.5,1.5,1.0,,,,,,,,,,
5,,iti,,html-keyboard-response,5,84155,0.0-1.0-4.0,0,0,76870,,,,,,0.0,,1.0,,,,,,,,,,,,,,,,,2.5,1.0,,,,,,,,,,,
6,,size_choice,,html-keyboard-response,6,85658,0.0-1.0-6.0,0,0,76870,,,,,,1.0,1.0,1.0,1000.0,M-M,,M,M,2.0,2.0,handsaw,hairdryer,handsaw1,hairdryer2,80.0,71.0,/static/Size_judgement/Stimuli/Size_stims/M/handsaw/handsaw8.jpg,/static/Size_judgement/Stimuli/Size_stims/M/hairdryer/hairdryer12.jpg,,4.0,1.5,1.0,,,,,,,,,,
7,,iti,,html-keyboard-response,7,86660,0.0-1.0-8.0,0,0,76870,,,,,,1.0,,1.0,,,,,,,,,,,,,,,,,5.0,1.0,,,,,,,,,,,
8,,size_choice,,html-keyboard-response,8,87563,0.0-1.0-10.0,0,0,76870,,900.0,,,75.0,2.0,2.0,1.0,1500.0,S-XL,0.0,S,XL,1.0,4.0,teabag,dumptruck,teabag7,dumptruck8,136.0,177.0,/static/Size_judgement/Stimuli/Size_stims/S/teabag/teabag10.jpg,/static/Size_judgement/Stimuli/Size_stims/XL/dumptruck/dumptruck7.jpg,1.0,5.9,0.9,0.0,0.0,dumptruck,teabag,XL,S,4.0,1.0,dumptruck8,teabag7,
9,,size_choice_confirmation,,html-keyboard-response,9,88166,0.0-1.0-11.0-0.0,0,0,76870,,,,,,2.0,,1.0,,,,,,,,,,,,,,,,,6.5,0.6,,,,,,,,,,,
10,,iti,,html-keyboard-response,10,89668,0.0-1.0-12.0,0,0,76870,,,,,,2.0,,1.0,,,,,,,,,,,,,,,,,8.0,1.5,,,,,,,,,,,
11,,size_choice,,html-keyboard-response,11,90709,0.0-1.0-14.0,0,0,76870,,1039.0,,,68.0,3.0,3.0,1.0,2000.0,S-M,1.0,M,S,2.0,1.0,hairdryer,screws,hairdryer5,screws5,74.0,124.0,/static/Size_judgement/Stimuli/Size_stims/M/hairdryer/hairdryer15.jpg,/static/Size_judgement/Stimuli/Size_stims/S/screws/screws2.jpg,1.0,9.039,1.039,0.0,1.0,hairdryer,screws,M,S,2.0,1.0,hairdryer5,screws5,
12,,size_choice_confirmation,,html-keyboard-response,12,91173,0.0-1.0-15.0-0.0,0,0,76870,,,,,,3.0,,1.0,,,,,,,,,,,,,,,,,9.5,0.461,,,,,,,,,,,
13,,iti,,html-keyboard-response,13,93176,0.0-1.0-16.0,0,0,76870,,,,,,3.0,,1.0,,,,,,,,,,,,,,,,,11.5,2.0,,,,,,,,,,,
14,,size_choice,,html-keyboard-response,14,93948,0.0-1.0-18.0,0,0,76870,,771.0,,,75.0,4.0,4.0,1.0,3500.0,S-XL,0.0,S,XL,1.0,4.0,teabag,car,teabag4,car9,133.0,158.0,/static/Size_judgement/Stimuli/Size_stims/S/teabag/teabag3.jpg,/static/Size_judgement/Stimuli/Size_stims/XL/car/car15.jpg,1.0,12.271,0.771,0.0,0.0,car,teabag,XL,S,4.0,1.0,car9,teabag4,
15,,size_choice_confirmation,,html-keyboard-response,15,94681,0.0-1.0-19.0-0.0,0,0,76870,,,,,,4.0,,1.0,,,,,,,,,,,,,,,,,13.0,0.729,,,,,,,,,,,
16,,iti,,html-keyboard-response,16,98184,0.0-1.0-20.0,0,0,76870,,,,,,4.0,,1.0,,,,,,,,,,,,,,,,,16.5,3.5,,,,,,,,,,,
17,,size_choice,,html-keyboard-response,17,99257,0.0-1.0-22.0,0,0,76870,,1070.0,,,68.0,5.0,5.0,1.0,1500.0,M-L,1.0,L,M,3.0,2.0,cooler,handsaw,cooler10,handsaw7,9.0,86.0,/static/Size_judgement/Stimuli/Size_stims/L/cooler/cooler6.jpg,/static/Size_judgement/Stimuli/Size_stims/M/handsaw/handsaw5.jpg,1.0,17.57,1.07,0.0,1.0,cooler,handsaw,L,M,3.0,2.0,cooler10,handsaw7,
18,,size_choice_confirmation,,html-keyboard-response,18,99691,0.0-1.0-23.0-0.0,0,0,76870,,,,,,5.0,,1.0,,,,,,,,,,,,,,,,,18.0,0.43,,,,,,,,,,,
19,,iti,,html-keyboard-response,19,101192,0.0-1.0-24.0,0,0,76870,,,,,,5.0,,1.0,,,,,,,,,,,,,,,,,19.5,1.5,,,,,,,,,,,
20,,size_choice,,html-keyboard-response,20,102213,0.0-1.0-26.0,0,0,76870,,1019.0,,,75.0,6.0,6.0,1.0,2000.0,M-XL,0.0,M,XL,2.0,4.0,basketball,crane,basketball10,crane9,59.0,168.0,/static/Size_judgement/Stimuli/Size_stims/M/basketball/basketball4.jpg,/static/Size_judgement/Stimuli/Size_stims/XL/crane/crane8.jpg,1.0,20.519,1.019,0.0,0.0,crane,basketball,XL,M,4.0,2.0,crane9,basketball10,
21,,size_choice_confirmation,,html-keyboard-response,21,102697,0.0-1.0-27.0-0.0,0,0,76870,,,,,,6.0,,1.0,,,,,,,,,,,,,,,,,21.0,0.481,,,,,,,,,,,
22,,iti,,html-keyboard-response,22,104700,0.0-1.0-28.0,0,0,76870,,,,,,6.0,,1.0,,,,,,,,,,,,,,,,,23.0,2.0,,,,,,,,,,,
23,,size_choice,,html-keyboard-response,23,105463,0.0-1.0-30.0,0,0,76870,,761.0,,,75.0,7.0,7.0,1.0,3000.0,M-XL,0.0,M,XL,2.0,4.0,hairdryer,dumptruck,hairdryer7,dumptruck6,76.0,175.0,/static/Size_judgement/Stimuli/Size_stims/M/hairdryer/hairdryer3.jpg,/static/Size_judgement/Stimuli/Size_stims/XL/dumptruck/dumptruck2.jpg,1.0,23.761,0.761,0.0,0.0,dumptruck,hairdryer,XL,M,4.0,2.0,dumptruck6,hairdryer7,
24,,size_choice_confirmation,,html-keyboard-response,24,106204,0.0-1.0-31.0-0.0,0,0,76870,,,,,,7.0,,1.0,,,,,,,,,,,,,,,,,24.5,0.739,,,,,,,,,,,
25,,iti,,html-keyboard-response,25,109206,0.0-1.0-32.0,0,0,76870,,,,,,7.0,,1.0,,,,,,,,,,,,,,,,,27.5,3.0,,,,,,,,,,,
26,,size_choice,,html-keyboard-response,26,109885,0.0-1.0-34.0,0,0,76870,,676.0,,,75.0,8.0,8.0,1.0,2000.0,XL-XL,,XL,XL,4.0,4.0,van,crane,van2,crane8,191.0,167.0,/static/Size_judgement/Stimuli/Size_stims/XL/van/van4.jpg,/static/Size_judgement/Stimuli/Size_stims/XL/crane/crane10.jpg,,28.176,0.676,0.0,0.0,crane,van,XL,XL,4.0,4.0,crane8,van2,
27,,size_choice_confirmation,,html-keyboard-response,27,110711,0.0-1.0-35.0-0.0,0,0,76870,,,,,,8.0,,1.0,,,,,,,,,,,,,,,,,29.0,0.824,,,,,,,,,,,
28,,iti,,html-keyboard-response,28,112714,0.0-1.0-36.0,0,0,76870,,,,,,8.0,,1.0,,,,,,,,,,,,,,,,,31.0,2.0,,,,,,,,,,,
29,,size_choice,,html-keyboard-response,29,113452,0.0-1.0-38.0,0,0,76870,,735.0,,,68.0,9.0,9.0,1.0,2000.0,L-L,,L,L,3.0,3.0,dishwasher,cooler,dishwasher7,cooler8,26.0,7.0,/static/Size_judgement/Stimuli/Size_stims/L/dishwasher/dishwasher7.jpg,/static/Size_judgement/Stimuli/Size_stims/L/cooler/cooler5.jpg,,31.735,0.735,0.0,1.0,dishwasher,cooler,L,L,3.0,3.0,dishwasher7,cooler8,
30,,size_choice_confirmation,,html-keyboard-response,30,114219,0.0-1.0-39.0-0.0,0,0,76870,,,,,,9.0,,1.0,,,,,,,,,,,,,,,,,32.5,0.765,,,,,,,,,,,
31,,iti,,html-keyboard-response,31,116220,0.0-1.0-40.0,0,0,76870,,,,,,9.0,,1.0,,,,,,,,,,,,,,,,,34.5,2.0,,,,,,,,,,,
32,,size_choice,,html-keyboard-response,32,117048,0.0-1.0-42.0,0,0,76870,,826.0,,,68.0,10.0,10.0,1.0,1000.0,M-L,1.0,L,M,3.0,2.0,garbagecan,basketball,garbagecan4,basketball4,33.0,53.0,/static/Size_judgement/Stimuli/Size_stims/L/garbagecan/garbagecan6.jpg,/static/Size_judgement/Stimuli/Size_stims/M/basketball/basketball1.jpg,1.0,35.326,0.826,0.0,1.0,garbagecan,basketball,L,M,3.0,2.0,garbagecan4,basketball4,
33,,size_choice_confirmation,,html-keyboard-response,33,117726,0.0-1.0-43.0-0.0,0,0,76870,,,,,,10.0,,1.0,,,,,,,,,,,,,,,,,36.0,0.674,,,,,,,,,,,
34,,iti,,html-keyboard-response,34,118729,0.0-1.0-44.0,0,0,76870,,,,,,10.0,,1.0,,,,,,,,,,,,,,,,,37.0,1.0,,,,,,,,,,,
35,,size_choice,,html-keyboard-response,35,120231,0.0-1.0-46.0,0,0,76870,,,,,,11.0,11.0,1.0,1000.0,S-L,1.0,L,S,3.0,1.0,dishwasher,screws,dishwasher8,screws8,27.0,127.0,/static/Size_judgement/Stimuli/Size_stims/L/dishwasher/dishwasher3.jpg,/static/Size_judgement/Stimuli/Size_stims/S/screws/screws10.jpg,,38.5,1.5,1.0,,,,,,,,,,
36,,iti,,html-keyboard-response,36,121234,0.0-1.0-48.0,0,0,76870,,,,,,11.0,,1.0,,,,,,,,,,,,,,,,,39.5,1.0,,,,,,,,,,,
37,,size_choice,,html-keyboard-response,37,122737,0.0-1.0-50.0,0,0,76870,,,,,,12.0,12.0,1.0,1000.0,L-XL,1.0,XL,L,4.0,3.0,tractor,deskchair,tractor6,deskchair5,185.0,14.0,/static/Size_judgement/Stimuli/Size_stims/XL/tractor/tractor3.jpg,/static/Size_judgement/Stimuli/Size_stims/L/deskchair/deskchair7.jpg,,41.0,1.5,1.0,,,,,,,,,,
38,,iti,,html-keyboard-response,38,123740,0.0-1.0-52.0,0,0,76870,,,,,,12.0,,1.0,,,,,,,,,,,,,,,,,42.0,1.0,,,,,,,,,,,
39,,size_choice,,html-keyboard-response,39,124756,0.0-1.0-54.0,0,0,76870,,1014.0,,,75.0,13.0,13.0,1.0,1000.0,S-S,,S,S,1.0,1.0,thread,die,thread10,die1,149.0,100.0,/static/Size_judgement/Stimuli/Size_stims/S/thread/thread9.jpg,/static/Size_judgement/Stimuli/Size_stims/S/die/die8.jpg,,43.014,1.014,0.0,0.0,die,thread,S,S,1.0,1.0,die1,thread10,
40,,size_choice_confirmation,,html-keyboard-response,40,125244,0.0-1.0-55.0-0.0,0,0,76870,,,,,,13.0,,1.0,,,,,,,,,,,,,,,,,43.5,0.486,,,,,,,,,,,
41,,iti,,html-keyboard-response,41,126246,0.0-1.0-56.0,0,0,76870,,,,,,13.0,,1.0,,,,,,,,,,,,,,,,,44.5,1.0,,,,,,,,,,,
42,,size_choice,,html-keyboard-response,42,127042,0.0-1.0-58.0,0,0,76870,,795.0,,,75.0,14.0,14.0,1.0,1000.0,M-XL,0.0,M,XL,2.0,4.0,coffeemaker,tractor,coffeemaker4,tractor4,63.0,183.0,/static/Size_judgement/Stimuli/Size_stims/M/coffeemaker/coffeemaker11.jpg,/static/Size_judgement/Stimuli/Size_stims/XL/tractor/tractor4.jpg,1.0,45.295,0.795,0.0,0.0,tractor,coffeemaker,XL,M,4.0,2.0,tractor4,coffeemaker4,
43,,size_choice_confirmation,,html-keyboard-response,43,127750,0.0-1.0-59.0-0.0,0,0,76870,,,,,,14.0,,1.0,,,,,,,,,,,,,,,,,46.0,0.705,,,,,,,,,,,
44,,iti,,html-keyboard-response,44,128752,0.0-1.0-60.0,0,0,76870,,,,,,14.0,,1.0,,,,,,,,,,,,,,,,,47.0,1.0,,,,,,,,,,,
45,,size_choice,,html-keyboard-response,45,130255,0.0-1.0-62.0,0,0,76870,,,,,,15.0,15.0,1.0,3500.0,M-XL,0.0,M,XL,2.0,4.0,handsaw,van,handsaw5,van10,84.0,199.0,/static/Size_judgement/Stimuli/Size_stims/M/handsaw/handsaw1.jpg,/static/Size_judgement/Stimuli/Size_stims/XL/van/van8.jpg,,48.5,1.5,1.0,,,,,,,,,,
46,,iti,,html-keyboard-response,46,133757,0.0-1.0-64.0,0,0,76870,,,,,,15.0,,1.0,,,,,,,,,,,,,,,,,52.0,3.5,,,,,,,,,,,
47,,size_choice,,html-keyboard-response,47,134359,0.0-1.0-66.0,0,0,76870,,601.0,,,75.0,16.0,16.0,1.0,1500.0,XL-XL,,XL,XL,4.0,4.0,dumptruck,car,dumptruck2,car6,171.0,155.0,/static/Size_judgement/Stimuli/Size_stims/XL/dumptruck/dumptruck8.jpg,/static/Size_judgement/Stimuli/Size_stims/XL/car/car12.jpg,,52.601,0.601,0.0,0.0,car,dumptruck,XL,XL,4.0,4.0,car6,dumptruck2,
48,,size_choice_confirmation,,html-keyboard-response,48,135262,0.0-1.0-67.0-0.0,0,0,76870,,,,,,16.0,,1.0,,,,,,,,,,,,,,,,,53.5,0.899,,,,,,,,,,,
49,,iti,,html-keyboard-response,49,136764,0.0-1.0-68.0,0,0,76870,,,,,,16.0,,1.0,,,,,,,,,,,,,,,,,55.0,1.5,,,,,,,,,,,
50,,size_choice,,html-keyboard-response,50,137806,0.0-1.0-70.0,0,0,76870,,1040.0,,,68.0,17.0,17.0,1.0,1500.0,S-XL,1.0,XL,S,4.0,1.0,van,screws,van1,screws6,190.0,125.0,/static/Size_judgement/Stimuli/Size_stims/XL/van/van5.jpg,/static/Size_judgement/Stimuli/Size_stims/S/screws/screws3.jpg,1.0,56.04,1.04,0.0,1.0,van,screws,XL,S,4.0,1.0,van1,screws6,
51,,size_choice_confirmation,,html-keyboard-response,51,138269,0.0-1.0-71.0-0.0,0,0,76870,,,,,,17.0,,1.0,,,,,,,,,,,,,,,,,56.5,0.46,,,,,,,,,,,
52,,iti,,html-keyboard-response,52,139772,0.0-1.0-72.0,0,0,76870,,,,,,17.0,,1.0,,,,,,,,,,,,,,,,,58.0,1.5,,,,,,,,,,,
53,,size_choice,,html-keyboard-response,53,140482,0.0-1.0-74.0,0,0,76870,,709.0,,,68.0,18.0,18.0,1.0,3500.0,M-XL,1.0,XL,M,4.0,2.0,car,basketball,car5,basketball8,154.0,57.0,/static/Size_judgement/Stimuli/Size_stims/XL/car/car11.jpg,/static/Size_judgement/Stimuli/Size_stims/M/basketball/basketball7.jpg,1.0,58.709,0.709,0.0,1.0,car,basketball,XL,M,4.0,2.0,car5,basketball8,
54,,size_choice_confirmation,,html-keyboard-response,54,141275,0.0-1.0-75.0-0.0,0,0,76870,,,,,,18.0,,1.0,,,,,,,,,,,,,,,,,59.5,0.791,,,,,,,,,,,
55,,iti,,html-keyboard-response,55,144778,0.0-1.0-76.0,0,0,76870,,,,,,18.0,,1.0,,,,,,,,,,,,,,,,,63.0,3.5,,,,,,,,,,,
56,,size_choice,,html-keyboard-response,56,145704,0.0-1.0-78.0,0,0,76870,,924.0,,,75.0,19.0,19.0,1.0,1500.0,S-L,1.0,L,S,3.0,1.0,cooler,thread,cooler7,thread7,6.0,146.0,/static/Size_judgement/Stimuli/Size_stims/L/cooler/cooler4.jpg,/static/Size_judgement/Stimuli/Size_stims/S/thread/thread3.jpg,0.0,63.924,0.924,0.0,0.0,thread,cooler,S,L,1.0,3.0,thread7,cooler7,
57,,size_choice_confirmation,,html-keyboard-response,57,146282,0.0-1.0-79.0-0.0,0,0,76870,,,,,,19.0,,1.0,,,,,,,,,,,,,,,,,64.5,0.576,,,,,,,,,,,
58,,iti,,html-keyboard-response,58,147784,0.0-1.0-80.0,0,0,76870,,,,,,19.0,,1.0,,,,,,,,,,,,,,,,,66.0,1.5,,,,,,,,,,,
59,,size_choice,,html-keyboard-response,59,149287,0.0-1.0-82.0,0,0,76870,,,,,,20.0,20.0,1.0,1000.0,S-S,,S,S,1.0,1.0,paperclip,teabag,paperclip8,teabag9,117.0,138.0,/static/Size_judgement/Stimuli/Size_stims/S/paperclip/paperclip5.jpg,/static/Size_judgement/Stimuli/Size_stims/S/teabag/teabag5.jpg,,67.5,1.5,1.0,,,,,,,,,,
60,,iti,,html-keyboard-response,60,150289,0.0-1.0-84.0,0,0,76870,,,,,,20.0,,1.0,,,,,,,,,,,,,,,,,68.5,1.0,,,,,,,,,,,
61,,size_choice,,html-keyboard-response,61,151235,0.0-1.0-86.0,0,0,76870,,945.0,,,75.0,21.0,21.0,1.0,1000.0,S-S,,S,S,1.0,1.0,die,paperclip,die6,paperclip6,105.0,115.0,/static/Size_judgement/Stimuli/Size_stims/S/die/die1.jpg,/static/Size_judgement/Stimuli/Size_stims/S/paperclip/paperclip6.jpg,,69.445,0.945,0.0,0.0,paperclip,die,S,S,1.0,1.0,paperclip6,die6,
62,,size_choice_confirmation,,html-keyboard-response,62,151793,0.0-1.0-87.0-0.0,0,0,76870,,,,,,21.0,,1.0,,,,,,,,,,,,,,,,,70.0,0.555,,,,,,,,,,,
63,,iti,,html-keyboard-response,63,152794,0.0-1.0-88.0,0,0,76870,,,,,,21.0,,1.0,,,,,,,,,,,,,,,,,71.0,1.0,,,,,,,,,,,
64,,size_choice,,html-keyboard-response,64,153570,0.0-1.0-90.0,0,0,76870,,774.0,,,75.0,22.0,22.0,1.0,1000.0,L-XL,0.0,L,XL,3.0,4.0,dishwasher,dumptruck,dishwasher3,dumptruck3,22.0,172.0,/static/Size_judgement/Stimuli/Size_stims/L/dishwasher/dishwasher8.jpg,/static/Size_judgement/Stimuli/Size_stims/XL/dumptruck/dumptruck10.jpg,1.0,71.774,0.774,0.0,0.0,dumptruck,dishwasher,XL,L,4.0,3.0,dumptruck3,dishwasher3,
65,,size_choice_confirmation,,html-keyboard-response,65,154298,0.0-1.0-91.0-0.0,0,0,76870,,,,,,22.0,,1.0,,,,,,,,,,,,,,,,,72.5,0.726,,,,,,,,,,,
66,,iti,,html-keyboard-response,66,155300,0.0-1.0-92.0,0,0,76870,,,,,,22.0,,1.0,,,,,,,,,,,,,,,,,73.5,1.0,,,,,,,,,,,
67,,size_choice,,html-keyboard-response,67,156528,0.0-1.0-94.0,0,0,76870,,1227.0,,,68.0,23.0,23.0,1.0,3000.0,M-M,,M,M,2.0,2.0,handsaw,hairdryer,handsaw8,hairdryer3,87.0,72.0,/static/Size_judgement/Stimuli/Size_stims/M/handsaw/handsaw7.jpg,/static/Size_judgement/Stimuli/Size_stims/M/hairdryer/hairdryer17.jpg,,74.727,1.227,0.0,1.0,handsaw,hairdryer,M,M,2.0,2.0,handsaw8,hairdryer3,
68,,size_choice_confirmation,,html-keyboard-response,68,156803,0.0-1.0-95.0-0.0,0,0,76870,,,,,,23.0,,1.0,,,,,,,,,,,,,,,,,75.0,0.273,,,,,,,,,,,
69,,iti,,html-keyboard-response,69,159806,0.0-1.0-96.0,0,0,76870,,,,,,23.0,,1.0,,,,,,,,,,,,,,,,,78.0,3.0,,,,,,,,,,,
70,,size_choice,,html-keyboard-response,70,160689,0.0-1.0-98.0,0,0,76870,,882.0,,,68.0,24.0,24.0,1.0,1000.0,S-M,1.0,M,S,2.0,1.0,basketball,paperclip,basketball2,paperclip10,51.0,119.0,/static/Size_judgement/Stimuli/Size_stims/M/basketball/basketball8.jpg,/static/Size_judgement/Stimuli/Size_stims/S/paperclip/paperclip10.jpg,1.0,78.882,0.882,0.0,1.0,basketball,paperclip,M,S,2.0,1.0,basketball2,paperclip10,
71,,size_choice_confirmation,,html-keyboard-response,71,161309,0.0-1.0-99.0-0.0,0,0,76870,,,,,,24.0,,1.0,,,,,,,,,,,,,,,,,79.5,0.618,,,,,,,,,,,
72,,iti,,html-keyboard-response,72,162312,0.0-1.0-100.0,0,0,76870,,,,,,24.0,,1.0,,,,,,,,,,,,,,,,,80.5,1.0,,,,,,,,,,,
73,,size_choice,,html-keyboard-response,73,163217,0.0-1.0-102.0,0,0,76870,,903.0,,,68.0,25.0,25.0,1.0,2000.0,S-L,1.0,L,S,3.0,1.0,dishwasher,paperclip,dishwasher10,paperclip9,29.0,118.0,/static/Size_judgement/Stimuli/Size_stims/L/dishwasher/dishwasher1.jpg,/static/Size_judgement/Stimuli/Size_stims/S/paperclip/paperclip4.jpg,1.0,81.403,0.903,0.0,1.0,dishwasher,paperclip,L,S,3.0,1.0,dishwasher10,paperclip9,
74,,size_choice_confirmation,,html-keyboard-response,74,163827,0.0-1.0-103.0-0.0,0,0,76870,,,,,,25.0,,1.0,,,,,,,,,,,,,,,,,82.0,0.597,,,,,,,,,,,
75,,iti,,html-keyboard-response,75,165833,0.0-1.0-104.0,0,0,76870,,,,,,25.0,,1.0,,,,,,,,,,,,,,,,,84.0,2.0,,,,,,,,,,,
76,,size_choice,,html-keyboard-response,76,166572,0.0-1.0-106.0,0,0,76870,,737.0,,,68.0,26.0,26.0,1.0,3000.0,S-L,1.0,L,S,3.0,1.0,deskchair,thread,deskchair10,thread2,19.0,141.0,/static/Size_judgement/Stimuli/Size_stims/L/deskchair/deskchair2.jpg,/static/Size_judgement/Stimuli/Size_stims/S/thread/thread6.jpg,1.0,84.737,0.737,0.0,1.0,deskchair,thread,L,S,3.0,1.0,deskchair10,thread2,
77,,size_choice_confirmation,,html-keyboard-response,77,167339,0.0-1.0-107.0-0.0,0,0,76870,,,,,,26.0,,1.0,,,,,,,,,,,,,,,,,85.5,0.763,,,,,,,,,,,
78,,iti,,html-keyboard-response,78,170341,0.0-1.0-108.0,0,0,76870,,,,,,26.0,,1.0,,,,,,,,,,,,,,,,,88.5,3.0,,,,,,,,,,,
79,,size_choice,,html-keyboard-response,79,171570,0.0-1.0-110.0,0,0,76870,,1226.0,,,75.0,27.0,27.0,1.0,1000.0,L-L,,L,L,3.0,3.0,mailbox,garbagecan,mailbox5,garbagecan8,44.0,37.0,/static/Size_judgement/Stimuli/Size_stims/L/mailbox/mailbox4.jpg,/static/Size_judgement/Stimuli/Size_stims/L/garbagecan/garbagecan13.jpg,,89.726,1.226,0.0,0.0,garbagecan,mailbox,L,L,3.0,3.0,garbagecan8,mailbox5,
80,,size_choice_confirmation,,html-keyboard-response,80,171847,0.0-1.0-111.0-0.0,0,0,76870,,,,,,27.0,,1.0,,,,,,,,,,,,,,,,,90.0,0.274,,,,,,,,,,,
81,,iti,,html-keyboard-response,81,172850,0.0-1.0-112.0,0,0,76870,,,,,,27.0,,1.0,,,,,,,,,,,,,,,,,91.0,1.0,,,,,,,,,,,
82,,size_choice,,html-keyboard-response,82,173746,0.0-1.0-114.0,0,0,76870,,894.0,,,75.0,28.0,28.0,1.0,2000.0,M-L,0.0,M,L,2.0,3.0,ketchup,mailbox,ketchup2,mailbox9,91.0,48.0,/static/Size_judgement/Stimuli/Size_stims/M/ketchup/ketchup9.jpg,/static/Size_judgement/Stimuli/Size_stims/L/mailbox/mailbox9.jpg,1.0,91.894,0.894,0.0,0.0,mailbox,ketchup,L,M,3.0,2.0,mailbox9,ketchup2,
83,,size_choice_confirmation,,html-keyboard-response,83,174354,0.0-1.0-115.0-0.0,0,0,76870,,,,,,28.0,,1.0,,,,,,,,,,,,,,,,,92.5,0.606,,,,,,,,,,,
84,,iti,,html-keyboard-response,84,176357,0.0-1.0-116.0,0,0,76870,,,,,,28.0,,1.0,,,,,,,,,,,,,,,,,94.5,2.0,,,,,,,,,,,
85,,size_choice,,html-keyboard-response,85,177275,0.0-1.0-118.0,0,0,76870,,916.0,,,75.0,29.0,29.0,1.0,1000.0,S-XL,0.0,S,XL,1.0,4.0,die,dumptruck,die5,dumptruck9,104.0,178.0,/static/Size_judgement/Stimuli/Size_stims/S/die/die3.jpg,/static/Size_judgement/Stimuli/Size_stims/XL/dumptruck/dumptruck5.jpg,1.0,95.416,0.916,0.0,0.0,dumptruck,die,XL,S,4.0,1.0,dumptruck9,die5,
86,,size_choice_confirmation,,html-keyboard-response,86,177861,0.0-1.0-119.0-0.0,0,0,76870,,,,,,29.0,,1.0,,,,,,,,,,,,,,,,,96.0,0.584,,,,,,,,,,,
87,,iti,,html-keyboard-response,87,178863,0.0-1.0-120.0,0,0,76870,,,,,,29.0,,1.0,,,,,,,,,,,,,,,,,97.0,1.0,,,,,,,,,,,
88,,size_choice,,html-keyboard-response,88,179760,0.0-1.0-122.0,0,0,76870,,896.0,,,68.0,30.0,30.0,1.0,1000.0,S-XL,1.0,XL,S,4.0,1.0,tractor,die,tractor7,die2,186.0,101.0,/static/Size_judgement/Stimuli/Size_stims/XL/tractor/tractor2.jpg,/static/Size_judgement/Stimuli/Size_stims/S/die/die9.jpg,1.0,97.896,0.896,0.0,1.0,tractor,die,XL,S,4.0,1.0,tractor7,die2,
89,,size_choice_confirmation,,html-keyboard-response,89,180367,0.0-1.0-123.0-0.0,0,0,76870,,,,,,30.0,,1.0,,,,,,,,,,,,,,,,,98.5,0.604,,,,,,,,,,,
90,,iti,,html-keyboard-response,90,181372,0.0-1.0-124.0,0,0,76870,,,,,,30.0,,1.0,,,,,,,,,,,,,,,,,99.5,1.0,,,,,,,,,,,
91,,size_choice,,html-keyboard-response,91,182875,0.0-1.0-126.0,0,0,76870,,,,,,31.0,31.0,1.0,1500.0,S-L,1.0,L,S,3.0,1.0,garbagecan,thread,garbagecan2,thread9,31.0,148.0,/static/Size_judgement/Stimuli/Size_stims/L/garbagecan/garbagecan5.jpg,/static/Size_judgement/Stimuli/Size_stims/S/thread/thread8.jpg,,101.0,1.5,1.0,,,,,,,,,,
92,,iti,,html-keyboard-response,92,184377,0.0-1.0-128.0,0,0,76870,,,,,,31.0,,1.0,,,,,,,,,,,,,,,,,102.5,1.5,,,,,,,,,,,
93,,size_choice,,html-keyboard-response,93,185352,0.0-1.0-130.0,0,0,76870,,973.0,,,68.0,32.0,32.0,1.0,2000.0,M-L,0.0,M,L,2.0,3.0,handsaw,deskchair,handsaw9,deskchair2,88.0,11.0,/static/Size_judgement/Stimuli/Size_stims/M/handsaw/handsaw6.jpg,/static/Size_judgement/Stimuli/Size_stims/L/deskchair/deskchair8.jpg,0.0,103.473,0.973,0.0,1.0,handsaw,deskchair,M,L,2.0,3.0,handsaw9,deskchair2,
94,,size_choice_confirmation,,html-keyboard-response,94,185881,0.0-1.0-131.0-0.0,0,0,76870,,,,,,32.0,,1.0,,,,,,,,,,,,,,,,,104.0,0.527,,,,,,,,,,,
95,,iti,,html-keyboard-response,95,187883,0.0-1.0-132.0,0,0,76870,,,,,,32.0,,1.0,,,,,,,,,,,,,,,,,106.0,2.0,,,,,,,,,,,
96,,size_choice,,html-keyboard-response,96,188890,0.0-1.0-134.0,0,0,76870,,1005.0,,,68.0,33.0,33.0,1.0,1000.0,S-L,1.0,L,S,3.0,1.0,garbagecan,teabag,garbagecan3,teabag8,32.0,137.0,/static/Size_judgement/Stimuli/Size_stims/L/garbagecan/garbagecan7.jpg,/static/Size_judgement/Stimuli/Size_stims/S/teabag/teabag7.jpg,1.0,107.005,1.005,0.0,1.0,garbagecan,teabag,L,S,3.0,1.0,garbagecan3,teabag8,
97,,size_choice_confirmation,,html-keyboard-response,97,189388,0.0-1.0-135.0-0.0,0,0,76870,,,,,,33.0,,1.0,,,,,,,,,,,,,,,,,107.5,0.495,,,,,,,,,,,
98,,iti,,html-keyboard-response,98,190390,0.0-1.0-136.0,0,0,76870,,,,,,33.0,,1.0,,,,,,,,,,,,,,,,,108.5,1.0,,,,,,,,,,,
99,,size_choice,,html-keyboard-response,99,191347,0.0-1.0-138.0,0,0,76870,,956.0,,,75.0,34.0,34.0,1.0,1000.0,M-L,0.0,M,L,2.0,3.0,handsaw,dishwasher,handsaw2,dishwasher4,81.0,23.0,/static/Size_judgement/Stimuli/Size_stims/M/handsaw/handsaw9.jpg,/static/Size_judgement/Stimuli/Size_stims/L/dishwasher/dishwasher5.jpg,1.0,109.456,0.956,0.0,0.0,dishwasher,handsaw,L,M,3.0,2.0,dishwasher4,handsaw2,
100,,size_choice_confirmation,,html-keyboard-response,100,191893,0.0-1.0-139.0-0.0,0,0,76870,,,,,,34.0,,1.0,,,,,,,,,,,,,,,,,110.0,0.544,,,,,,,,,,,
101,,iti,,html-keyboard-response,101,192896,0.0-1.0-140.0,0,0,76870,,,,,,34.0,,1.0,,,,,,,,,,,,,,,,,111.0,1.0,,,,,,,,,,,
102,,size_choice,,html-keyboard-response,102,193644,0.0-1.0-142.0,0,0,76870,,745.0,,,68.0,35.0,35.0,1.0,1500.0,M-L,1.0,L,M,3.0,2.0,dishwasher,ketchup,dishwasher1,ketchup4,20.0,93.0,/static/Size_judgement/Stimuli/Size_stims/L/dishwasher/dishwasher10.jpg,/static/Size_judgement/Stimuli/Size_stims/M/ketchup/ketchup2.jpg,1.0,111.745,0.745,0.0,1.0,dishwasher,ketchup,L,M,3.0,2.0,dishwasher1,ketchup4,
103,,size_choice_confirmation,,html-keyboard-response,103,194407,0.0-1.0-143.0-0.0,0,0,76870,,,,,,35.0,,1.0,,,,,,,,,,,,,,,,,112.5,0.755,,,,,,,,,,,
104,,iti,,html-keyboard-response,104,195940,0.0-1.0-144.0,0,0,76870,,,,,,35.0,,1.0,,,,,,,,,,,,,,,,,114.0,1.5,,,,,,,,,,,
105,,size_choice,,html-keyboard-response,105,197082,0.0-1.0-146.0,0,0,76870,,1139.0,,,75.0,36.0,36.0,1.0,1500.0,M-L,0.0,M,L,2.0,3.0,hairdryer,cooler,hairdryer6,cooler3,75.0,2.0,/static/Size_judgement/Stimuli/Size_stims/M/hairdryer/hairdryer8.jpg,/static/Size_judgement/Stimuli/Size_stims/L/cooler/cooler2.jpg,1.0,115.139,1.139,0.0,0.0,cooler,hairdryer,L,M,3.0,2.0,cooler3,hairdryer6,
106,,size_choice_confirmation,,html-keyboard-response,106,197446,0.0-1.0-147.0-0.0,0,0,76870,,,,,,36.0,,1.0,,,,,,,,,,,,,,,,,115.5,0.361,,,,,,,,,,,
107,,iti,,html-keyboard-response,107,198948,0.0-1.0-148.0,0,0,76870,,,,,,36.0,,1.0,,,,,,,,,,,,,,,,,117.0,1.5,,,,,,,,,,,
108,,size_choice,,html-keyboard-response,108,199647,0.0-1.0-150.0,0,0,76870,,697.0,,,68.0,37.0,37.0,1.0,1000.0,S-XL,1.0,XL,S,4.0,1.0,car,teabag,car4,teabag10,153.0,139.0,/static/Size_judgement/Stimuli/Size_stims/XL/car/car6.jpg,/static/Size_judgement/Stimuli/Size_stims/S/teabag/teabag4.jpg,1.0,117.697,0.697,0.0,1.0,car,teabag,XL,S,4.0,1.0,car4,teabag10,
109,,size_choice_confirmation,,html-keyboard-response,109,200452,0.0-1.0-151.0-0.0,0,0,76870,,,,,,37.0,,1.0,,,,,,,,,,,,,,,,,118.5,0.803,,,,,,,,,,,
110,,iti,,html-keyboard-response,110,201455,0.0-1.0-152.0,0,0,76870,,,,,,37.0,,1.0,,,,,,,,,,,,,,,,,119.5,1.0,,,,,,,,,,,
111,,size_choice,,html-keyboard-response,111,202382,0.0-1.0-154.0,0,0,76870,,926.0,,,68.0,38.0,38.0,1.0,1500.0,M-XL,1.0,XL,M,4.0,2.0,tractor,handsaw,tractor8,handsaw10,187.0,89.0,/static/Size_judgement/Stimuli/Size_stims/XL/tractor/tractor10.jpg,/static/Size_judgement/Stimuli/Size_stims/M/handsaw/handsaw10.jpg,1.0,120.426,0.926,0.0,1.0,tractor,handsaw,XL,M,4.0,2.0,tractor8,handsaw10,
112,,size_choice_confirmation,,html-keyboard-response,112,202959,0.0-1.0-155.0-0.0,0,0,76870,,,,,,38.0,,1.0,,,,,,,,,,,,,,,,,121.0,0.574,,,,,,,,,,,
113,,iti,,html-keyboard-response,113,204461,0.0-1.0-156.0,0,0,76870,,,,,,38.0,,1.0,,,,,,,,,,,,,,,,,122.5,1.5,,,,,,,,,,,
114,,size_choice,,html-keyboard-response,114,205460,0.0-1.0-158.0,0,0,76870,,996.0,,,68.0,39.0,39.0,1.0,1500.0,S-M,1.0,M,S,2.0,1.0,basketball,screws,basketball6,screws9,55.0,128.0,/static/Size_judgement/Stimuli/Size_stims/M/basketball/basketball2.jpg,/static/Size_judgement/Stimuli/Size_stims/S/screws/screws8.jpg,1.0,123.496,0.996,0.0,1.0,basketball,screws,M,S,2.0,1.0,basketball6,screws9,
115,,size_choice_confirmation,,html-keyboard-response,115,205966,0.0-1.0-159.0-0.0,0,0,76870,,,,,,39.0,,1.0,,,,,,,,,,,,,,,,,124.0,0.504,,,,,,,,,,,
116,,iti,,html-keyboard-response,116,207469,0.0-1.0-160.0,0,0,76870,,,,,,39.0,,1.0,,,,,,,,,,,,,,,,,125.5,1.5,,,,,,,,,,,
117,,size_choice,,html-keyboard-response,117,208306,0.0-1.0-162.0,0,0,76870,,836.0,,,75.0,40.0,40.0,1.0,1000.0,M-XL,0.0,M,XL,2.0,4.0,hairdryer,dumptruck,hairdryer1,dumptruck5,70.0,174.0,/static/Size_judgement/Stimuli/Size_stims/M/hairdryer/hairdryer11.jpg,/static/Size_judgement/Stimuli/Size_stims/XL/dumptruck/dumptruck3.jpg,1.0,126.336,0.836,0.0,0.0,dumptruck,hairdryer,XL,M,4.0,2.0,dumptruck5,hairdryer1,
118,,size_choice_confirmation,,html-keyboard-response,118,208972,0.0-1.0-163.0-0.0,0,0,76870,,,,,,40.0,,1.0,,,,,,,,,,,,,,,,,127.0,0.664,,,,,,,,,,,
119,,iti,,html-keyboard-response,119,209974,0.0-1.0-164.0,0,0,76870,,,,,,40.0,,1.0,,,,,,,,,,,,,,,,,128.0,1.0,,,,,,,,,,,
120,,size_choice,,html-keyboard-response,120,210953,0.0-1.0-166.0,0,0,76870,,978.0,,,75.0,41.0,41.0,1.0,1500.0,S-L,0.0,S,L,1.0,3.0,paperclip,mailbox,paperclip2,mailbox7,111.0,46.0,/static/Size_judgement/Stimuli/Size_stims/S/paperclip/paperclip8.jpg,/static/Size_judgement/Stimuli/Size_stims/L/mailbox/mailbox7.jpg,1.0,128.978,0.978,0.0,0.0,mailbox,paperclip,L,S,3.0,1.0,mailbox7,paperclip2,
121,,size_choice_confirmation,,html-keyboard-response,121,211478,0.0-1.0-167.0-0.0,0,0,76870,,,,,,41.0,,1.0,,,,,,,,,,,,,,,,,129.5,0.522,,,,,,,,,,,
122,,iti,,html-keyboard-response,122,212980,0.0-1.0-168.0,0,0,76870,,,,,,41.0,,1.0,,,,,,,,,,,,,,,,,131.0,1.5,,,,,,,,,,,
123,,size_choice,,html-keyboard-response,123,213969,0.0-1.0-170.0,0,0,76870,,988.0,,,75.0,42.0,42.0,1.0,2000.0,S-XL,0.0,S,XL,1.0,4.0,thread,dumptruck,thread8,dumptruck10,147.0,179.0,/static/Size_judgement/Stimuli/Size_stims/S/thread/thread10.jpg,/static/Size_judgement/Stimuli/Size_stims/XL/dumptruck/dumptruck4.jpg,1.0,131.988,0.988,0.0,0.0,dumptruck,thread,XL,S,4.0,1.0,dumptruck10,thread8,
124,,size_choice_confirmation,,html-keyboard-response,124,214485,0.0-1.0-171.0-0.0,0,0,76870,,,,,,42.0,,1.0,,,,,,,,,,,,,,,,,132.5,0.512,,,,,,,,,,,
125,,iti,,html-keyboard-response,125,216488,0.0-1.0-172.0,0,0,76870,,,,,,42.0,,1.0,,,,,,,,,,,,,,,,,134.5,2.0,,,,,,,,,,,
126,,size_choice,,html-keyboard-response,126,217408,0.0-1.0-174.0,0,0,76870,,918.0,,,75.0,43.0,43.0,1.0,3000.0,L-XL,0.0,L,XL,3.0,4.0,cooler,tractor,cooler1,tractor10,0.0,189.0,/static/Size_judgement/Stimuli/Size_stims/L/cooler/cooler8.jpg,/static/Size_judgement/Stimuli/Size_stims/XL/tractor/tractor8.jpg,1.0,135.418,0.918,0.0,0.0,tractor,cooler,XL,L,4.0,3.0,tractor10,cooler1,
127,,size_choice_confirmation,,html-keyboard-response,127,217994,0.0-1.0-175.0-0.0,0,0,76870,,,,,,43.0,,1.0,,,,,,,,,,,,,,,,,136.0,0.582,,,,,,,,,,,
128,,iti,,html-keyboard-response,128,220995,0.0-1.0-176.0,0,0,76870,,,,,,43.0,,1.0,,,,,,,,,,,,,,,,,139.0,3.0,,,,,,,,,,,
129,,size_choice,,html-keyboard-response,129,222499,0.0-1.0-178.0,0,0,76870,,,,,,44.0,44.0,1.0,1500.0,M-M,,M,M,2.0,2.0,hairdryer,coffeemaker,hairdryer10,coffeemaker1,79.0,60.0,/static/Size_judgement/Stimuli/Size_stims/M/hairdryer/hairdryer6.jpg,/static/Size_judgement/Stimuli/Size_stims/M/coffeemaker/coffeemaker14.jpg,,140.5,1.5,1.0,,,,,,,,,,
130,,iti,,html-keyboard-response,130,224001,0.0-1.0-180.0,0,0,76870,,,,,,44.0,,1.0,,,,,,,,,,,,,,,,,142.0,1.5,,,,,,,,,,,
131,,block_over,,html-keyboard-response,131,230445,0.0-1.0-181.0-0.0,0,0,76870,,6441.0,,,68.0,44.0,,,,,,,,,,,,,,,,,,,,,,,,,,,,,,,
132,,size_choice,,html-keyboard-response,132,231295,0.0-1.0-182.0,0,0,76870,,849.0,,,75.0,45.0,45.0,2.0,3500.0,L-XL,0.0,L,XL,3.0,4.0,cooler,car,cooler4,car3,3.0,152.0,/static/Size_judgement/Stimuli/Size_stims/L/cooler/cooler3.jpg,/static/Size_judgement/Stimuli/Size_stims/XL/car/car4.jpg,1.0,142.849,0.849,0.0,0.0,car,cooler,XL,L,4.0,3.0,car3,cooler4,
133,,size_choice_confirmation,,html-keyboard-response,133,231951,0.0-1.0-183.0-0.0,0,0,76870,,,,,,45.0,,2.0,,,,,,,,,,,,,,,,,143.5,0.651,,,,,,,,,,,
134,,iti,,html-keyboard-response,134,235452,0.0-1.0-184.0,0,0,76870,,,,,,45.0,,2.0,,,,,,,,,,,,,,,,,147.0,3.5,,,,,,,,,,,
135,,size_choice,,html-keyboard-response,135,236317,0.0-1.0-186.0,0,0,76870,,863.0,,,68.0,46.0,46.0,2.0,2000.0,L-L,,L,L,3.0,3.0,deskchair,cooler,deskchair8,cooler2,17.0,1.0,/static/Size_judgement/Stimuli/Size_stims/L/deskchair/deskchair1.jpg,/static/Size_judgement/Stimuli/Size_stims/L/cooler/cooler9.jpg,,147.863,0.863,0.0,1.0,deskchair,cooler,L,L,3.0,3.0,deskchair8,cooler2,
136,,size_choice_confirmation,,html-keyboard-response,136,236957,0.0-1.0-187.0-0.0,0,0,76870,,,,,,46.0,,2.0,,,,,,,,,,,,,,,,,148.5,0.637,,,,,,,,,,,
137,,iti,,html-keyboard-response,137,238960,0.0-1.0-188.0,0,0,76870,,,,,,46.0,,2.0,,,,,,,,,,,,,,,,,150.5,2.0,,,,,,,,,,,
138,,size_choice,,html-keyboard-response,138,239605,0.0-1.0-190.0,0,0,76870,,642.0,,,68.0,47.0,47.0,2.0,1500.0,M-L,0.0,M,L,2.0,3.0,basketball,cooler,basketball3,cooler9,52.0,8.0,/static/Size_judgement/Stimuli/Size_stims/M/basketball/basketball10.jpg,/static/Size_judgement/Stimuli/Size_stims/L/cooler/cooler7.jpg,0.0,151.142,0.642,0.0,1.0,basketball,cooler,M,L,2.0,3.0,basketball3,cooler9,
139,,size_choice_confirmation,,html-keyboard-response,139,240465,0.0-1.0-191.0-0.0,0,0,76870,,,,,,47.0,,2.0,,,,,,,,,,,,,,,,,152.0,0.858,,,,,,,,,,,
140,,iti,,html-keyboard-response,140,241968,0.0-1.0-192.0,0,0,76870,,,,,,47.0,,2.0,,,,,,,,,,,,,,,,,153.5,1.5,,,,,,,,,,,
141,,size_choice,,html-keyboard-response,141,242622,0.0-1.0-194.0,0,0,76870,,653.0,,,68.0,48.0,48.0,2.0,1000.0,M-XL,1.0,XL,M,4.0,2.0,car,ketchup,car8,ketchup5,157.0,94.0,/static/Size_judgement/Stimuli/Size_stims/XL/car/car14.jpg,/static/Size_judgement/Stimuli/Size_stims/M/ketchup/ketchup3.jpg,1.0,154.153,0.653,0.0,1.0,car,ketchup,XL,M,4.0,2.0,car8,ketchup5,
142,,size_choice_confirmation,,html-keyboard-response,142,243473,0.0-1.0-195.0-0.0,0,0,76870,,,,,,48.0,,2.0,,,,,,,,,,,,,,,,,155.0,0.847,,,,,,,,,,,
143,,iti,,html-keyboard-response,143,244475,0.0-1.0-196.0,0,0,76870,,,,,,48.0,,2.0,,,,,,,,,,,,,,,,,156.0,1.0,,,,,,,,,,,
144,,size_choice,,html-keyboard-response,144,245432,0.0-1.0-198.0,0,0,76870,,955.0,,,68.0,49.0,49.0,2.0,1000.0,S-S,,S,S,1.0,1.0,die,thread,die3,thread6,102.0,145.0,/static/Size_judgement/Stimuli/Size_stims/S/die/die10.jpg,/static/Size_judgement/Stimuli/Size_stims/S/thread/thread2.jpg,,156.955,0.955,0.0,1.0,die,thread,S,S,1.0,1.0,die3,thread6,
145,,size_choice_confirmation,,html-keyboard-response,145,245981,0.0-1.0-199.0-0.0,0,0,76870,,,,,,49.0,,2.0,,,,,,,,,,,,,,,,,157.5,0.545,,,,,,,,,,,
146,,iti,,html-keyboard-response,146,246983,0.0-1.0-200.0,0,0,76870,,,,,,49.0,,2.0,,,,,,,,,,,,,,,,,158.5,1.0,,,,,,,,,,,
147,,size_choice,,html-keyboard-response,147,247979,0.0-1.0-202.0,0,0,76870,,995.0,,,75.0,50.0,50.0,2.0,2000.0,S-XL,0.0,S,XL,1.0,4.0,thread,car,thread3,car10,142.0,159.0,/static/Size_judgement/Stimuli/Size_stims/S/thread/thread4.jpg,/static/Size_judgement/Stimuli/Size_stims/XL/car/car9.jpg,1.0,159.495,0.995,0.0,0.0,car,thread,XL,S,4.0,1.0,car10,thread3,
148,,size_choice_confirmation,,html-keyboard-response,148,248488,0.0-1.0-203.0-0.0,0,0,76870,,,,,,50.0,,2.0,,,,,,,,,,,,,,,,,160.0,0.505,,,,,,,,,,,
149,,iti,,html-keyboard-response,149,250491,0.0-1.0-204.0,0,0,76870,,,,,,50.0,,2.0,,,,,,,,,,,,,,,,,162.0,2.0,,,,,,,,,,,
150,,size_choice,,html-keyboard-response,150,251356,0.0-1.0-206.0,0,0,76870,,863.0,,,75.0,51.0,51.0,2.0,2000.0,M-M,,M,M,2.0,2.0,ketchup,basketball,ketchup9,basketball9,98.0,58.0,/static/Size_judgement/Stimuli/Size_stims/M/ketchup/ketchup7.jpg,/static/Size_judgement/Stimuli/Size_stims/M/basketball/basketball5.jpg,,162.863,0.863,0.0,0.0,basketball,ketchup,M,M,2.0,2.0,basketball9,ketchup9,
151,,size_choice_confirmation,,html-keyboard-response,151,251995,0.0-1.0-207.0-0.0,0,0,76870,,,,,,51.0,,2.0,,,,,,,,,,,,,,,,,163.5,0.637,,,,,,,,,,,
152,,iti,,html-keyboard-response,152,253997,0.0-1.0-208.0,0,0,76870,,,,,,51.0,,2.0,,,,,,,,,,,,,,,,,165.5,2.0,,,,,,,,,,,
153,,size_choice,,html-keyboard-response,153,255083,0.0-1.0-210.0,0,0,76870,,1084.0,,,75.0,52.0,52.0,2.0,1500.0,S-M,0.0,S,M,1.0,2.0,thread,ketchup,thread4,ketchup7,143.0,96.0,/static/Size_judgement/Stimuli/Size_stims/S/thread/thread5.jpg,/static/Size_judgement/Stimuli/Size_stims/M/ketchup/ketchup4.jpg,1.0,166.584,1.084,0.0,0.0,ketchup,thread,M,S,2.0,1.0,ketchup7,thread4,
154,,size_choice_confirmation,,html-keyboard-response,154,255510,0.0-1.0-211.0-0.0,0,0,76870,,,,,,52.0,,2.0,,,,,,,,,,,,,,,,,167.0,0.416,,,,,,,,,,,
155,,iti,,html-keyboard-response,155,257012,0.0-1.0-212.0,0,0,76870,,,,,,52.0,,2.0,,,,,,,,,,,,,,,,,168.5,1.5,,,,,,,,,,,
156,,size_choice,,html-keyboard-response,156,257750,0.0-1.0-214.0,0,0,76870,,736.0,,,75.0,53.0,53.0,2.0,1500.0,M-XL,0.0,M,XL,2.0,4.0,ketchup,van,ketchup1,van8,90.0,197.0,/static/Size_judgement/Stimuli/Size_stims/M/ketchup/ketchup8.jpg,/static/Size_judgement/Stimuli/Size_stims/XL/van/van10.jpg,1.0,169.236,0.736,0.0,0.0,van,ketchup,XL,M,4.0,2.0,van8,ketchup1,
157,,size_choice_confirmation,,html-keyboard-response,157,258517,0.0-1.0-215.0-0.0,0,0,76870,,,,,,53.0,,2.0,,,,,,,,,,,,,,,,,170.0,0.764,,,,,,,,,,,
158,,iti,,html-keyboard-response,158,260020,0.0-1.0-216.0,0,0,76870,,,,,,53.0,,2.0,,,,,,,,,,,,,,,,,171.5,1.5,,,,,,,,,,,
159,,size_choice,,html-keyboard-response,159,261289,0.0-1.0-218.0,0,0,76870,,1267.0,,,68.0,54.0,54.0,2.0,2000.0,XL-XL,,XL,XL,4.0,4.0,dumptruck,car,dumptruck1,car2,170.0,151.0,/static/Size_judgement/Stimuli/Size_stims/XL/dumptruck/dumptruck9.jpg,/static/Size_judgement/Stimuli/Size_stims/XL/car/car3.jpg,,172.767,1.267,0.0,1.0,dumptruck,car,XL,XL,4.0,4.0,dumptruck1,car2,
160,,size_choice_confirmation,,html-keyboard-response,160,261525,0.0-1.0-219.0-0.0,0,0,76870,,,,,,54.0,,2.0,,,,,,,,,,,,,,,,,173.0,0.233,,,,,,,,,,,
161,,iti,,html-keyboard-response,161,263528,0.0-1.0-220.0,0,0,76870,,,,,,54.0,,2.0,,,,,,,,,,,,,,,,,175.0,2.0,,,,,,,,,,,
162,,size_choice,,html-keyboard-response,162,264947,0.0-1.0-222.0,0,0,76870,,1418.0,,,75.0,55.0,55.0,2.0,1000.0,M-L,1.0,L,M,3.0,2.0,mailbox,coffeemaker,mailbox10,coffeemaker10,49.0,69.0,/static/Size_judgement/Stimuli/Size_stims/L/mailbox/mailbox8.jpg,/static/Size_judgement/Stimuli/Size_stims/M/coffeemaker/coffeemaker18.jpg,0.0,176.418,1.418,0.0,0.0,coffeemaker,mailbox,M,L,2.0,3.0,coffeemaker10,mailbox10,
163,,size_choice_confirmation,,html-keyboard-response,163,265033,0.0-1.0-223.0-0.0,0,0,76870,,,,,,55.0,,2.0,,,,,,,,,,,,,,,,,176.5,0.082,,,,,,,,,,,
164,,iti,,html-keyboard-response,164,266035,0.0-1.0-224.0,0,0,76870,,,,,,55.0,,2.0,,,,,,,,,,,,,,,,,177.5,1.0,,,,,,,,,,,
165,,size_choice,,html-keyboard-response,165,266950,0.0-1.0-226.0,0,0,76870,,914.0,,,75.0,56.0,56.0,2.0,1000.0,M-XL,0.0,M,XL,2.0,4.0,hairdryer,van,hairdryer4,van5,73.0,194.0,/static/Size_judgement/Stimuli/Size_stims/M/hairdryer/hairdryer16.jpg,/static/Size_judgement/Stimuli/Size_stims/XL/van/van3.jpg,1.0,178.414,0.914,0.0,0.0,van,hairdryer,XL,M,4.0,2.0,van5,hairdryer4,
166,,size_choice_confirmation,,html-keyboard-response,166,267539,0.0-1.0-227.0-0.0,0,0,76870,,,,,,56.0,,2.0,,,,,,,,,,,,,,,,,179.0,0.586,,,,,,,,,,,
167,,iti,,html-keyboard-response,167,268543,0.0-1.0-228.0,0,0,76870,,,,,,56.0,,2.0,,,,,,,,,,,,,,,,,180.0,1.0,,,,,,,,,,,
168,,size_choice,,html-keyboard-response,168,269526,0.0-1.0-230.0,0,0,76870,,981.0,,,75.0,57.0,57.0,2.0,1000.0,S-L,0.0,S,L,1.0,3.0,die,mailbox,die10,mailbox6,109.0,45.0,/static/Size_judgement/Stimuli/Size_stims/S/die/die6.jpg,/static/Size_judgement/Stimuli/Size_stims/L/mailbox/mailbox6.jpg,1.0,180.981,0.981,0.0,0.0,mailbox,die,L,S,3.0,1.0,mailbox6,die10,
169,,size_choice_confirmation,,html-keyboard-response,169,270049,0.0-1.0-231.0-0.0,0,0,76870,,,,,,57.0,,2.0,,,,,,,,,,,,,,,,,181.5,0.519,,,,,,,,,,,
170,,iti,,html-keyboard-response,170,271052,0.0-1.0-232.0,0,0,76870,,,,,,57.0,,2.0,,,,,,,,,,,,,,,,,182.5,1.0,,,,,,,,,,,
171,,size_choice,,html-keyboard-response,171,272002,0.0-1.0-234.0,0,0,76870,,947.0,,,68.0,58.0,58.0,2.0,3000.0,M-XL,1.0,XL,M,4.0,2.0,crane,ketchup,crane6,ketchup6,165.0,95.0,/static/Size_judgement/Stimuli/Size_stims/XL/crane/crane2.jpg,/static/Size_judgement/Stimuli/Size_stims/M/ketchup/ketchup1.jpg,1.0,183.447,0.947,0.0,1.0,crane,ketchup,XL,M,4.0,2.0,crane6,ketchup6,
172,,size_choice_confirmation,,html-keyboard-response,172,272557,0.0-1.0-235.0-0.0,0,0,76870,,,,,,58.0,,2.0,,,,,,,,,,,,,,,,,184.0,0.553,,,,,,,,,,,
173,,iti,,html-keyboard-response,173,275559,0.0-1.0-236.0,0,0,76870,,,,,,58.0,,2.0,,,,,,,,,,,,,,,,,187.0,3.0,,,,,,,,,,,
174,,size_choice,,html-keyboard-response,174,276753,0.0-1.0-238.0,0,0,76870,,1192.0,,,68.0,59.0,59.0,2.0,1500.0,S-XL,1.0,XL,S,4.0,1.0,van,teabag,van4,teabag3,193.0,132.0,/static/Size_judgement/Stimuli/Size_stims/XL/van/van7.jpg,/static/Size_judgement/Stimuli/Size_stims/S/teabag/teabag1.jpg,1.0,188.192,1.192,0.0,1.0,van,teabag,XL,S,4.0,1.0,van4,teabag3,
175,,size_choice_confirmation,,html-keyboard-response,175,277063,0.0-1.0-239.0-0.0,0,0,76870,,,,,,59.0,,2.0,,,,,,,,,,,,,,,,,188.5,0.308,,,,,,,,,,,
176,,iti,,html-keyboard-response,176,278566,0.0-1.0-240.0,0,0,76870,,,,,,59.0,,2.0,,,,,,,,,,,,,,,,,190.0,1.5,,,,,,,,,,,
177,,size_choice,,html-keyboard-response,177,279260,0.0-1.0-242.0,0,0,76870,,691.0,,,75.0,60.0,60.0,2.0,1500.0,S-L,0.0,S,L,1.0,3.0,paperclip,deskchair,paperclip4,deskchair3,113.0,12.0,/static/Size_judgement/Stimuli/Size_stims/S/paperclip/paperclip3.jpg,/static/Size_judgement/Stimuli/Size_stims/L/deskchair/deskchair10.jpg,1.0,190.691,0.691,0.0,0.0,deskchair,paperclip,L,S,3.0,1.0,deskchair3,paperclip4,
178,,size_choice_confirmation,,html-keyboard-response,178,280072,0.0-1.0-243.0-0.0,0,0,76870,,,,,,60.0,,2.0,,,,,,,,,,,,,,,,,191.5,0.809,,,,,,,,,,,
179,,iti,,html-keyboard-response,179,281574,0.0-1.0-244.0,0,0,76870,,,,,,60.0,,2.0,,,,,,,,,,,,,,,,,193.0,1.5,,,,,,,,,,,
180,,size_choice,,html-keyboard-response,180,282605,0.0-1.0-246.0,0,0,76870,,1029.0,,,68.0,61.0,61.0,2.0,1000.0,L-L,,L,L,3.0,3.0,dishwasher,garbagecan,dishwasher5,garbagecan1,24.0,30.0,/static/Size_judgement/Stimuli/Size_stims/L/dishwasher/dishwasher4.jpg,/static/Size_judgement/Stimuli/Size_stims/L/garbagecan/garbagecan4.jpg,,194.029,1.029,0.0,1.0,dishwasher,garbagecan,L,L,3.0,3.0,dishwasher5,garbagecan1,
181,,size_choice_confirmation,,html-keyboard-response,181,283085,0.0-1.0-247.0-0.0,0,0,76870,,,,,,61.0,,2.0,,,,,,,,,,,,,,,,,194.5,0.471,,,,,,,,,,,
182,,iti,,html-keyboard-response,182,284087,0.0-1.0-248.0,0,0,76870,,,,,,61.0,,2.0,,,,,,,,,,,,,,,,,195.5,1.0,,,,,,,,,,,
183,,size_choice,,html-keyboard-response,183,284940,0.0-1.0-250.0,0,0,76870,,852.0,,,75.0,62.0,62.0,2.0,1000.0,M-L,0.0,M,L,2.0,3.0,ketchup,deskchair,ketchup3,deskchair7,92.0,16.0,/static/Size_judgement/Stimuli/Size_stims/M/ketchup/ketchup10.jpg,/static/Size_judgement/Stimuli/Size_stims/L/deskchair/deskchair4.jpg,1.0,196.352,0.852,0.0,0.0,deskchair,ketchup,L,M,3.0,2.0,deskchair7,ketchup3,
184,,size_choice_confirmation,,html-keyboard-response,184,285590,0.0-1.0-251.0-0.0,0,0,76870,,,,,,62.0,,2.0,,,,,,,,,,,,,,,,,197.0,0.648,,,,,,,,,,,
185,,iti,,html-keyboard-response,185,286594,0.0-1.0-252.0,0,0,76870,,,,,,62.0,,2.0,,,,,,,,,,,,,,,,,198.0,1.0,,,,,,,,,,,
186,,size_choice,,html-keyboard-response,186,287877,0.0-1.0-254.0,0,0,76870,,1281.0,,,75.0,63.0,63.0,2.0,2000.0,S-M,0.0,S,M,1.0,2.0,teabag,coffeemaker,teabag2,coffeemaker3,131.0,62.0,/static/Size_judgement/Stimuli/Size_stims/S/teabag/teabag8.jpg,/static/Size_judgement/Stimuli/Size_stims/M/coffeemaker/coffeemaker13.jpg,1.0,199.281,1.281,0.0,0.0,coffeemaker,teabag,M,S,2.0,1.0,coffeemaker3,teabag2,
187,,size_choice_confirmation,,html-keyboard-response,187,288098,0.0-1.0-255.0-0.0,0,0,76870,,,,,,63.0,,2.0,,,,,,,,,,,,,,,,,199.5,0.219,,,,,,,,,,,
188,,iti,,html-keyboard-response,188,290100,0.0-1.0-256.0,0,0,76870,,,,,,63.0,,2.0,,,,,,,,,,,,,,,,,201.5,2.0,,,,,,,,,,,
189,,size_choice,,html-keyboard-response,189,291266,0.0-1.0-258.0,0,0,76870,,1164.0,,,75.0,64.0,64.0,2.0,1000.0,M-L,0.0,M,L,2.0,3.0,coffeemaker,garbagecan,coffeemaker6,garbagecan10,65.0,39.0,/static/Size_judgement/Stimuli/Size_stims/M/coffeemaker/coffeemaker8.jpg,/static/Size_judgement/Stimuli/Size_stims/L/garbagecan/garbagecan11.jpg,1.0,202.664,1.164,0.0,0.0,garbagecan,coffeemaker,L,M,3.0,2.0,garbagecan10,coffeemaker6,
190,,size_choice_confirmation,,html-keyboard-response,190,291604,0.0-1.0-259.0-0.0,0,0,76870,,,,,,64.0,,2.0,,,,,,,,,,,,,,,,,203.0,0.336,,,,,,,,,,,
191,,iti,,html-keyboard-response,191,292610,0.0-1.0-260.0,0,0,76870,,,,,,64.0,,2.0,,,,,,,,,,,,,,,,,204.0,1.0,,,,,,,,,,,
192,,size_choice,,html-keyboard-response,192,293379,0.0-1.0-262.0,0,0,76870,,766.0,,,68.0,65.0,65.0,2.0,1000.0,S-XL,1.0,XL,S,4.0,1.0,crane,paperclip,crane1,paperclip3,160.0,112.0,/static/Size_judgement/Stimuli/Size_stims/XL/crane/crane7.jpg,/static/Size_judgement/Stimuli/Size_stims/S/paperclip/paperclip1.jpg,1.0,204.766,0.766,0.0,1.0,crane,paperclip,XL,S,4.0,1.0,crane1,paperclip3,
193,,size_choice_confirmation,,html-keyboard-response,193,294120,0.0-1.0-263.0-0.0,0,0,76870,,,,,,65.0,,2.0,,,,,,,,,,,,,,,,,205.5,0.734,,,,,,,,,,,
194,,iti,,html-keyboard-response,194,295121,0.0-1.0-264.0,0,0,76870,,,,,,65.0,,2.0,,,,,,,,,,,,,,,,,206.5,1.0,,,,,,,,,,,
195,,size_choice,,html-keyboard-response,195,296326,0.0-1.0-266.0,0,0,76870,,1202.0,,,75.0,66.0,66.0,2.0,2000.0,M-M,,M,M,2.0,2.0,hairdryer,handsaw,hairdryer9,handsaw4,78.0,83.0,/static/Size_judgement/Stimuli/Size_stims/M/hairdryer/hairdryer5.jpg,/static/Size_judgement/Stimuli/Size_stims/M/handsaw/handsaw3.jpg,,207.702,1.202,0.0,0.0,handsaw,hairdryer,M,M,2.0,2.0,handsaw4,hairdryer9,
196,,size_choice_confirmation,,html-keyboard-response,196,296626,0.0-1.0-267.0-0.0,0,0,76870,,,,,,66.0,,2.0,,,,,,,,,,,,,,,,,208.0,0.298,,,,,,,,,,,
197,,iti,,html-keyboard-response,197,298628,0.0-1.0-268.0,0,0,76870,,,,,,66.0,,2.0,,,,,,,,,,,,,,,,,210.0,2.0,,,,,,,,,,,
198,,size_choice,,html-keyboard-response,198,299452,0.0-1.0-270.0,0,0,76870,,822.0,,,75.0,67.0,67.0,2.0,1500.0,S-S,,S,S,1.0,1.0,paperclip,screws,paperclip1,screws10,110.0,129.0,/static/Size_judgement/Stimuli/Size_stims/S/paperclip/paperclip9.jpg,/static/Size_judgement/Stimuli/Size_stims/S/screws/screws9.jpg,,210.822,0.822,0.0,0.0,screws,paperclip,S,S,1.0,1.0,screws10,paperclip1,
199,,size_choice_confirmation,,html-keyboard-response,199,300136,0.0-1.0-271.0-0.0,0,0,76870,,,,,,67.0,,2.0,,,,,,,,,,,,,,,,,211.5,0.678,,,,,,,,,,,
200,,iti,,html-keyboard-response,200,301637,0.0-1.0-272.0,0,0,76870,,,,,,67.0,,2.0,,,,,,,,,,,,,,,,,213.0,1.5,,,,,,,,,,,
201,,size_choice,,html-keyboard-response,201,302469,0.0-1.0-274.0,0,0,76870,,830.0,,,68.0,68.0,68.0,2.0,1500.0,M-XL,1.0,XL,M,4.0,2.0,tractor,coffeemaker,tractor2,coffeemaker7,181.0,66.0,/static/Size_judgement/Stimuli/Size_stims/XL/tractor/tractor7.jpg,/static/Size_judgement/Stimuli/Size_stims/M/coffeemaker/coffeemaker9.jpg,1.0,213.83,0.83,0.0,1.0,tractor,coffeemaker,XL,M,4.0,2.0,tractor2,coffeemaker7,
202,,size_choice_confirmation,,html-keyboard-response,202,303141,0.0-1.0-275.0-0.0,0,0,76870,,,,,,68.0,,2.0,,,,,,,,,,,,,,,,,214.5,0.67,,,,,,,,,,,
203,,iti,,html-keyboard-response,203,304643,0.0-1.0-276.0,0,0,76870,,,,,,68.0,,2.0,,,,,,,,,,,,,,,,,216.0,1.5,,,,,,,,,,,
204,,size_choice,,html-keyboard-response,204,305517,0.0-1.0-278.0,0,0,76870,,872.0,,,68.0,69.0,69.0,2.0,2000.0,L-XL,1.0,XL,L,4.0,3.0,crane,deskchair,crane4,deskchair1,163.0,10.0,/static/Size_judgement/Stimuli/Size_stims/XL/crane/crane5.jpg,/static/Size_judgement/Stimuli/Size_stims/L/deskchair/deskchair9.jpg,1.0,216.872,0.872,0.0,1.0,crane,deskchair,XL,L,4.0,3.0,crane4,deskchair1,
205,,size_choice_confirmation,,html-keyboard-response,205,306148,0.0-1.0-279.0-0.0,0,0,76870,,,,,,69.0,,2.0,,,,,,,,,,,,,,,,,217.5,0.628,,,,,,,,,,,
206,,iti,,html-keyboard-response,206,308150,0.0-1.0-280.0,0,0,76870,,,,,,69.0,,2.0,,,,,,,,,,,,,,,,,219.5,2.0,,,,,,,,,,,
207,,size_choice,,html-keyboard-response,207,308926,0.0-1.0-282.0,0,0,76870,,774.0,,,68.0,70.0,70.0,2.0,2000.0,S-L,1.0,L,S,3.0,1.0,garbagecan,die,garbagecan6,die8,35.0,107.0,/static/Size_judgement/Stimuli/Size_stims/L/garbagecan/garbagecan14.jpg,/static/Size_judgement/Stimuli/Size_stims/S/die/die5.jpg,1.0,220.274,0.774,0.0,1.0,garbagecan,die,L,S,3.0,1.0,garbagecan6,die8,
208,,size_choice_confirmation,,html-keyboard-response,208,309655,0.0-1.0-283.0-0.0,0,0,76870,,,,,,70.0,,2.0,,,,,,,,,,,,,,,,,221.0,0.726,,,,,,,,,,,
209,,iti,,html-keyboard-response,209,311657,0.0-1.0-284.0,0,0,76870,,,,,,70.0,,2.0,,,,,,,,,,,,,,,,,223.0,2.0,,,,,,,,,,,
210,,size_choice,,html-keyboard-response,210,312376,0.0-1.0-286.0,0,0,76870,,717.0,,,68.0,71.0,71.0,2.0,1000.0,M-L,0.0,M,L,2.0,3.0,handsaw,cooler,handsaw6,cooler5,85.0,4.0,/static/Size_judgement/Stimuli/Size_stims/M/handsaw/handsaw4.jpg,/static/Size_judgement/Stimuli/Size_stims/L/cooler/cooler10.jpg,0.0,223.717,0.717,0.0,1.0,handsaw,cooler,M,L,2.0,3.0,handsaw6,cooler5,
211,,size_choice_confirmation,,html-keyboard-response,211,313163,0.0-1.0-287.0-0.0,0,0,76870,,,,,,71.0,,2.0,,,,,,,,,,,,,,,,,224.5,0.783,,,,,,,,,,,
212,,iti,,html-keyboard-response,212,314166,0.0-1.0-288.0,0,0,76870,,,,,,71.0,,2.0,,,,,,,,,,,,,,,,,225.5,1.0,,,,,,,,,,,
213,,size_choice,,html-keyboard-response,213,315262,0.0-1.0-290.0,0,0,76870,,1095.0,,,75.0,72.0,72.0,2.0,1000.0,S-L,0.0,S,L,1.0,3.0,screws,mailbox,screws4,mailbox1,123.0,40.0,/static/Size_judgement/Stimuli/Size_stims/S/screws/screws6.jpg,/static/Size_judgement/Stimuli/Size_stims/L/mailbox/mailbox3.jpg,1.0,226.595,1.095,0.0,0.0,mailbox,screws,L,S,3.0,1.0,mailbox1,screws4,
214,,size_choice_confirmation,,html-keyboard-response,214,315672,0.0-1.0-291.0-0.0,0,0,76870,,,,,,72.0,,2.0,,,,,,,,,,,,,,,,,227.0,0.405,,,,,,,,,,,
215,,iti,,html-keyboard-response,215,316674,0.0-1.0-292.0,0,0,76870,,,,,,72.0,,2.0,,,,,,,,,,,,,,,,,228.0,1.0,,,,,,,,,,,
216,,size_choice,,html-keyboard-response,216,317576,0.0-1.0-294.0,0,0,76870,,900.0,,,75.0,73.0,73.0,2.0,1000.0,S-XL,0.0,S,XL,1.0,4.0,thread,car,thread5,car1,144.0,150.0,/static/Size_judgement/Stimuli/Size_stims/S/thread/thread1.jpg,/static/Size_judgement/Stimuli/Size_stims/XL/car/car2.jpg,1.0,228.9,0.9,0.0,0.0,car,thread,XL,S,4.0,1.0,car1,thread5,
217,,size_choice_confirmation,,html-keyboard-response,217,318178,0.0-1.0-295.0-0.0,0,0,76870,,,,,,73.0,,2.0,,,,,,,,,,,,,,,,,229.5,0.6,,,,,,,,,,,
218,,iti,,html-keyboard-response,218,319182,0.0-1.0-296.0,0,0,76870,,,,,,73.0,,2.0,,,,,,,,,,,,,,,,,230.5,1.0,,,,,,,,,,,
219,,size_choice,,html-keyboard-response,219,320153,0.0-1.0-298.0,0,0,76870,,969.0,,,75.0,74.0,74.0,2.0,1000.0,XL-XL,,XL,XL,4.0,4.0,van,tractor,van6,tractor9,195.0,188.0,/static/Size_judgement/Stimuli/Size_stims/XL/van/van2.jpg,/static/Size_judgement/Stimuli/Size_stims/XL/tractor/tractor9.jpg,,231.469,0.969,0.0,0.0,tractor,van,XL,XL,4.0,4.0,tractor9,van6,
220,,size_choice_confirmation,,html-keyboard-response,220,320687,0.0-1.0-299.0-0.0,0,0,76870,,,,,,74.0,,2.0,,,,,,,,,,,,,,,,,232.0,0.531,,,,,,,,,,,
221,,iti,,html-keyboard-response,221,321690,0.0-1.0-300.0,0,0,76870,,,,,,74.0,,2.0,,,,,,,,,,,,,,,,,233.0,1.0,,,,,,,,,,,
222,,size_choice,,html-keyboard-response,222,322447,0.0-1.0-302.0,0,0,76870,,756.0,,,75.0,75.0,75.0,2.0,1500.0,M-XL,0.0,M,XL,2.0,4.0,basketball,van,basketball7,van7,56.0,196.0,/static/Size_judgement/Stimuli/Size_stims/M/basketball/basketball6.jpg,/static/Size_judgement/Stimuli/Size_stims/XL/van/van1.jpg,1.0,233.756,0.756,0.0,0.0,van,basketball,XL,M,4.0,2.0,van7,basketball7,
223,,size_choice_confirmation,,html-keyboard-response,223,323195,0.0-1.0-303.0-0.0,0,0,76870,,,,,,75.0,,2.0,,,,,,,,,,,,,,,,,234.5,0.744,,,,,,,,,,,
224,,iti,,html-keyboard-response,224,324698,0.0-1.0-304.0,0,0,76870,,,,,,75.0,,2.0,,,,,,,,,,,,,,,,,236.0,1.5,,,,,,,,,,,
225,,size_choice,,html-keyboard-response,225,325395,0.0-1.0-306.0,0,0,76870,,695.0,,,68.0,76.0,76.0,2.0,1500.0,S-XL,1.0,XL,S,4.0,1.0,dumptruck,teabag,dumptruck7,teabag5,176.0,134.0,/static/Size_judgement/Stimuli/Size_stims/XL/dumptruck/dumptruck6.jpg,/static/Size_judgement/Stimuli/Size_stims/S/teabag/teabag2.jpg,1.0,236.695,0.695,0.0,1.0,dumptruck,teabag,XL,S,4.0,1.0,dumptruck7,teabag5,
226,,size_choice_confirmation,,html-keyboard-response,226,326204,0.0-1.0-307.0-0.0,0,0,76870,,,,,,76.0,,2.0,,,,,,,,,,,,,,,,,237.5,0.805,,,,,,,,,,,
227,,iti,,html-keyboard-response,227,327710,0.0-1.0-308.0,0,0,76870,,,,,,76.0,,2.0,,,,,,,,,,,,,,,,,239.0,1.5,,,,,,,,,,,
228,,size_choice,,html-keyboard-response,228,328461,0.0-1.0-310.0,0,0,76870,,750.0,,,75.0,77.0,77.0,2.0,1500.0,M-L,0.0,M,L,2.0,3.0,ketchup,deskchair,ketchup8,deskchair6,97.0,15.0,/static/Size_judgement/Stimuli/Size_stims/M/ketchup/ketchup5.jpg,/static/Size_judgement/Stimuli/Size_stims/L/deskchair/deskchair5.jpg,1.0,239.75,0.75,0.0,0.0,deskchair,ketchup,L,M,3.0,2.0,deskchair6,ketchup8,
229,,size_choice_confirmation,,html-keyboard-response,229,329215,0.0-1.0-311.0-0.0,0,0,76870,,,,,,77.0,,2.0,,,,,,,,,,,,,,,,,240.5,0.75,,,,,,,,,,,
230,,iti,,html-keyboard-response,230,330718,0.0-1.0-312.0,0,0,76870,,,,,,77.0,,2.0,,,,,,,,,,,,,,,,,242.0,1.5,,,,,,,,,,,
231,,size_choice,,html-keyboard-response,231,331580,0.0-1.0-314.0,0,0,76870,,859.0,,,68.0,78.0,78.0,2.0,3000.0,S-XL,1.0,XL,S,4.0,1.0,crane,paperclip,crane2,paperclip7,161.0,116.0,/static/Size_judgement/Stimuli/Size_stims/XL/crane/crane6.jpg,/static/Size_judgement/Stimuli/Size_stims/S/paperclip/paperclip7.jpg,1.0,242.859,0.859,0.0,1.0,crane,paperclip,XL,S,4.0,1.0,crane2,paperclip7,
232,,size_choice_confirmation,,html-keyboard-response,232,332223,0.0-1.0-315.0-0.0,0,0,76870,,,,,,78.0,,2.0,,,,,,,,,,,,,,,,,243.5,0.641,,,,,,,,,,,
233,,iti,,html-keyboard-response,233,335225,0.0-1.0-316.0,0,0,76870,,,,,,78.0,,2.0,,,,,,,,,,,,,,,,,246.5,3.0,,,,,,,,,,,
234,,size_choice,,html-keyboard-response,234,336388,0.0-1.0-318.0,0,0,76870,,1161.0,,,68.0,79.0,79.0,2.0,3500.0,M-XL,1.0,XL,M,4.0,2.0,crane,coffeemaker,crane10,coffeemaker2,169.0,61.0,/static/Size_judgement/Stimuli/Size_stims/XL/crane/crane9.jpg,/static/Size_judgement/Stimuli/Size_stims/M/coffeemaker/coffeemaker12.jpg,1.0,247.661,1.161,0.0,1.0,crane,coffeemaker,XL,M,4.0,2.0,crane10,coffeemaker2,
235,,size_choice_confirmation,,html-keyboard-response,235,336730,0.0-1.0-319.0-0.0,0,0,76870,,,,,,79.0,,2.0,,,,,,,,,,,,,,,,,248.0,0.339,,,,,,,,,,,
236,,iti,,html-keyboard-response,236,340233,0.0-1.0-320.0,0,0,76870,,,,,,79.0,,2.0,,,,,,,,,,,,,,,,,251.5,3.5,,,,,,,,,,,
237,,size_choice,,html-keyboard-response,237,341297,0.0-1.0-322.0,0,0,76870,,1063.0,,,68.0,80.0,80.0,2.0,3000.0,S-L,1.0,L,S,3.0,1.0,mailbox,screws,mailbox4,screws1,43.0,120.0,/static/Size_judgement/Stimuli/Size_stims/L/mailbox/mailbox5.jpg,/static/Size_judgement/Stimuli/Size_stims/S/screws/screws4.jpg,1.0,252.563,1.063,0.0,1.0,mailbox,screws,L,S,3.0,1.0,mailbox4,screws1,
238,,size_choice_confirmation,,html-keyboard-response,238,341737,0.0-1.0-323.0-0.0,0,0,76870,,,,,,80.0,,2.0,,,,,,,,,,,,,,,,,253.0,0.437,,,,,,,,,,,
239,,iti,,html-keyboard-response,239,344740,0.0-1.0-324.0,0,0,76870,,,,,,80.0,,2.0,,,,,,,,,,,,,,,,,256.0,3.0,,,,,,,,,,,
240,,size_choice,,html-keyboard-response,240,345758,0.0-1.0-326.0,0,0,76870,,1016.0,,,68.0,81.0,81.0,2.0,1000.0,S-L,1.0,L,S,3.0,1.0,dishwasher,teabag,dishwasher6,teabag1,25.0,130.0,/static/Size_judgement/Stimuli/Size_stims/L/dishwasher/dishwasher6.jpg,/static/Size_judgement/Stimuli/Size_stims/S/teabag/teabag9.jpg,1.0,257.016,1.016,0.0,1.0,dishwasher,teabag,L,S,3.0,1.0,dishwasher6,teabag1,
241,,size_choice_confirmation,,html-keyboard-response,241,346245,0.0-1.0-327.0-0.0,0,0,76870,,,,,,81.0,,2.0,,,,,,,,,,,,,,,,,257.5,0.484,,,,,,,,,,,
242,,iti,,html-keyboard-response,242,347247,0.0-1.0-328.0,0,0,76870,,,,,,81.0,,2.0,,,,,,,,,,,,,,,,,258.5,1.0,,,,,,,,,,,
243,,size_choice,,html-keyboard-response,243,348627,0.0-1.0-330.0,0,0,76870,,1378.0,,,68.0,82.0,82.0,2.0,1000.0,M-L,1.0,L,M,3.0,2.0,garbagecan,basketball,garbagecan5,basketball1,34.0,50.0,/static/Size_judgement/Stimuli/Size_stims/L/garbagecan/garbagecan3.jpg,/static/Size_judgement/Stimuli/Size_stims/M/basketball/basketball9.jpg,1.0,259.878,1.378,0.0,1.0,garbagecan,basketball,L,M,3.0,2.0,garbagecan5,basketball1,
244,,size_choice_confirmation,,html-keyboard-response,244,348752,0.0-1.0-331.0-0.0,0,0,76870,,,,,,82.0,,2.0,,,,,,,,,,,,,,,,,260.0,0.122,,,,,,,,,,,
245,,iti,,html-keyboard-response,245,349770,0.0-1.0-332.0,0,0,76870,,,,,,82.0,,2.0,,,,,,,,,,,,,,,,,261.0,1.0,,,,,,,,,,,
246,,size_choice,,html-keyboard-response,246,350491,0.0-1.0-334.0,0,0,76870,,720.0,,,68.0,83.0,83.0,2.0,3000.0,S-XL,1.0,XL,S,4.0,1.0,crane,screws,crane3,screws7,162.0,126.0,/static/Size_judgement/Stimuli/Size_stims/XL/crane/crane4.jpg,/static/Size_judgement/Stimuli/Size_stims/S/screws/screws1.jpg,1.0,261.72,0.72,0.0,1.0,crane,screws,XL,S,4.0,1.0,crane3,screws7,
247,,size_choice_confirmation,,html-keyboard-response,247,351274,0.0-1.0-335.0-0.0,0,0,76870,,,,,,83.0,,2.0,,,,,,,,,,,,,,,,,262.5,0.78,,,,,,,,,,,
248,,iti,,html-keyboard-response,248,354276,0.0-1.0-336.0,0,0,76870,,,,,,83.0,,2.0,,,,,,,,,,,,,,,,,265.5,3.0,,,,,,,,,,,
249,,size_choice,,html-keyboard-response,249,355391,0.0-1.0-338.0,0,0,76870,,1114.0,,,68.0,84.0,84.0,2.0,3500.0,S-L,1.0,L,S,3.0,1.0,deskchair,screws,deskchair9,screws3,18.0,122.0,/static/Size_judgement/Stimuli/Size_stims/L/deskchair/deskchair3.jpg,/static/Size_judgement/Stimuli/Size_stims/S/screws/screws7.jpg,1.0,266.614,1.114,0.0,1.0,deskchair,screws,L,S,3.0,1.0,deskchair9,screws3,
250,,size_choice_confirmation,,html-keyboard-response,250,355780,0.0-1.0-339.0-0.0,0,0,76870,,,,,,84.0,,2.0,,,,,,,,,,,,,,,,,267.0,0.386,,,,,,,,,,,
251,,iti,,html-keyboard-response,251,359283,0.0-1.0-340.0,0,0,76870,,,,,,84.0,,2.0,,,,,,,,,,,,,,,,,270.5,3.5,,,,,,,,,,,
252,,size_choice,,html-keyboard-response,252,360181,0.0-1.0-342.0,0,0,76870,,895.0,,,75.0,85.0,85.0,2.0,1500.0,S-L,0.0,S,L,1.0,3.0,die,mailbox,die7,mailbox2,106.0,41.0,/static/Size_judgement/Stimuli/Size_stims/S/die/die4.jpg,/static/Size_judgement/Stimuli/Size_stims/L/mailbox/mailbox2.jpg,1.0,271.395,0.895,0.0,0.0,mailbox,die,L,S,3.0,1.0,mailbox2,die7,
253,,size_choice_confirmation,,html-keyboard-response,253,360789,0.0-1.0-343.0-0.0,0,0,76870,,,,,,85.0,,2.0,,,,,,,,,,,,,,,,,272.0,0.605,,,,,,,,,,,
254,,iti,,html-keyboard-response,254,362291,0.0-1.0-344.0,0,0,76870,,,,,,85.0,,2.0,,,,,,,,,,,,,,,,,273.5,1.5,,,,,,,,,,,
255,,size_choice,,html-keyboard-response,255,363368,0.0-1.0-346.0,0,0,76870,,1075.0,,,75.0,86.0,86.0,2.0,1000.0,M-XL,0.0,M,XL,2.0,4.0,coffeemaker,tractor,coffeemaker9,tractor3,68.0,182.0,/static/Size_judgement/Stimuli/Size_stims/M/coffeemaker/coffeemaker7.jpg,/static/Size_judgement/Stimuli/Size_stims/XL/tractor/tractor5.jpg,1.0,274.575,1.075,0.0,0.0,tractor,coffeemaker,XL,M,4.0,2.0,tractor3,coffeemaker9,
256,,size_choice_confirmation,,html-keyboard-response,256,363796,0.0-1.0-347.0-0.0,0,0,76870,,,,,,86.0,,2.0,,,,,,,,,,,,,,,,,275.0,0.425,,,,,,,,,,,
257,,iti,,html-keyboard-response,257,364800,0.0-1.0-348.0,0,0,76870,,,,,,86.0,,2.0,,,,,,,,,,,,,,,,,276.0,1.0,,,,,,,,,,,
258,,size_choice,,html-keyboard-response,258,365493,0.0-1.0-350.0,0,0,76870,,690.0,,,75.0,87.0,87.0,2.0,1000.0,XL-XL,,XL,XL,4.0,4.0,van,tractor,van9,tractor1,198.0,180.0,/static/Size_judgement/Stimuli/Size_stims/XL/van/van9.jpg,/static/Size_judgement/Stimuli/Size_stims/XL/tractor/tractor6.jpg,,276.69,0.69,0.0,0.0,tractor,van,XL,XL,4.0,4.0,tractor1,van9,
259,,size_choice_confirmation,,html-keyboard-response,259,366305,0.0-1.0-351.0-0.0,0,0,76870,,,,,,87.0,,2.0,,,,,,,,,,,,,,,,,277.5,0.81,,,,,,,,,,,
260,,iti,,html-keyboard-response,260,367307,0.0-1.0-352.0,0,0,76870,,,,,,87.0,,2.0,,,,,,,,,,,,,,,,,278.5,1.0,,,,,,,,,,,
261,,size_choice,,html-keyboard-response,261,368029,0.0-1.0-354.0,0,0,76870,,720.0,,,68.0,88.0,88.0,2.0,1500.0,S-XL,1.0,XL,S,4.0,1.0,crane,die,crane7,die4,166.0,103.0,/static/Size_judgement/Stimuli/Size_stims/XL/crane/crane3.jpg,/static/Size_judgement/Stimuli/Size_stims/S/die/die2.jpg,1.0,279.22,0.72,0.0,1.0,crane,die,XL,S,4.0,1.0,crane7,die4,
262,,size_choice_confirmation,,html-keyboard-response,262,368814,0.0-1.0-355.0-0.0,0,0,76870,,,,,,88.0,,2.0,,,,,,,,,,,,,,,,,280.0,0.78,,,,,,,,,,,
263,,iti,,html-keyboard-response,263,370317,0.0-1.0-356.0,0,0,76870,,,,,,88.0,,2.0,,,,,,,,,,,,,,,,,281.5,1.5,,,,,,,,,,,
264,,size_choice,,html-keyboard-response,264,371174,0.0-1.0-358.0,0,0,76870,,855.0,,,75.0,89.0,89.0,2.0,1000.0,M-L,0.0,M,L,2.0,3.0,coffeemaker,mailbox,coffeemaker8,mailbox8,67.0,47.0,/static/Size_judgement/Stimuli/Size_stims/M/coffeemaker/coffeemaker5.jpg,/static/Size_judgement/Stimuli/Size_stims/L/mailbox/mailbox10.jpg,1.0,282.355,0.855,0.0,0.0,mailbox,coffeemaker,L,M,3.0,2.0,mailbox8,coffeemaker8,
265,,size_choice_confirmation,,html-keyboard-response,265,371834,0.0-1.0-359.0-0.0,0,0,76870,,,,,,89.0,,2.0,,,,,,,,,,,,,,,,,283.0,0.645,,,,,,,,,,,
266,,iti,,html-keyboard-response,266,372836,0.0-1.0-360.0,0,0,76870,,,,,,89.0,,2.0,,,,,,,,,,,,,,,,,284.0,1.0,,,,,,,,,,,0.87
267,,size_final_tally,,html-keyboard-response,267,376907,0.0-2.0,0,0,76870,,4068.0,,,68.0,,,,,,,,,,,,,,,,,,,,,,,,,,,,,,,,
