,success,ttype,start_time,trial_type,trial_index,time_elapsed,internal_node_id,warning,missed_checkup,PID,view_history,rt,responses,repeat_instructions,key_press,index,trial_num,block,iti,pair_type,high_size_on_left,left_size_group,right_size_group,left_size_num,right_size_num,left_category,right_category,left_exemplar,right_exemplar,left_index,right_index,left_img_path,right_img_path,left_chosen,chosen_category,unchosen_category,chosen_size_group,unchosen_size_group,chosen_size_num,unchosen_size_num,chosen_exemplar,unchosen_exemplar,accuracy,onset,duration,no_response,size_final_tally
0,True,full_screen,d06032022hr1601,fullscreen,0,5424,0.0-0.0,0,0,61002,,,,,,,,,,,,,,,,,,,,,,,,,,,,,,,,,,,,,
1,,size_instructions,,instructions,1,57374,0.0-1.0-0.0-0.0,0,0,61002,"[{""page_index"":0,""viewing_time"":8881},{""page_index"":1,""viewing_time"":14732},{""page_index"":2,""viewing_time"":10946},{""page_index"":3,""viewing_time"":7564},{""page_index"":4,""viewing_time"":5928},{""page_index"":5,""viewing_time"":3898}]",51949.0,,,,,,,,,,,,,,,,,,,,,,,,,,,,,,,,,,,
2,,size_comprehension_check,,survey-multi-choice,2,74125,0.0-1.0-0.0-1.0,0,0,61002,,16747.0,"{""Q0"":""True"",""Q1"":""Size in the real world"",""Q2"":""True"",""Q3"":""D for left and K for right""}",0.0,,,,,,,,,,,,,,,,,,,,,,,,,,,,,,,,,
3,,,,html-keyboard-response,3,75440,0.0-1.0-1.0,0,0,61002,,1313.0,,,68.0,,,,,,,,,,,,,,,,,,,,,,,,,,,,,,,,
4,,size_choice,,html-keyboard-response,4,76471,0.0-1.0-2.0,0,0,61002,,1028.0,,,75.0,0.0,0.0,1.0,1000.0,L-L,,L,L,3.0,3.0,dishwasher,garbagecan,dishwasher9,garbagecan9,28.0,38.0,/static/Size_judgement/Stimuli/Size_stims/L/dishwasher/dishwasher2.jpg,/static/Size_judgement/Stimuli/Size_stims/L/garbagecan/garbagecan12.jpg,0.0,garbagecan,dishwasher,L,L,3.0,3.0,garbagecan9,dishwasher9,,1.028,1.028,0.0,
5,,size_choice_confirmation,,html-keyboard-response,5,76947,0.0-1.0-3.0-0.0,0,0,61002,,,,,,0.0,,,,,,,,,,,,,,,,,,,,,,,,,,,,1.5,0.472,,
6,,iti,,html-keyboard-response,6,77949,0.0-1.0-4.0,0,0,61002,,,,,,,,,,,,,,,,,,,,,,,,,,,,,,,,,,2.5,1.0,,
7,,size_choice,,html-keyboard-response,7,79191,0.0-1.0-6.0,0,0,61002,,1240.0,,,75.0,1.0,1.0,1.0,1000.0,M-M,,M,M,2.0,2.0,handsaw,hairdryer,handsaw1,hairdryer2,80.0,71.0,/static/Size_judgement/Stimuli/Size_stims/M/handsaw/handsaw8.jpg,/static/Size_judgement/Stimuli/Size_stims/M/hairdryer/hairdryer12.jpg,0.0,hairdryer,handsaw,M,M,2.0,2.0,hairdryer2,handsaw1,,3.74,1.24,0.0,
8,,size_choice_confirmation,,html-keyboard-response,8,79454,0.0-1.0-7.0-0.0,0,0,61002,,,,,,1.0,,,,,,,,,,,,,,,,,,,,,,,,,,,,4.0,0.26,,
9,,iti,,html-keyboard-response,9,80456,0.0-1.0-8.0,0,0,61002,,,,,,,,,,,,,,,,,,,,,,,,,,,,,,,,,,5.0,1.0,,
10,,size_choice,,html-keyboard-response,10,81399,0.0-1.0-10.0,0,0,61002,,942.0,,,75.0,2.0,2.0,1.0,1500.0,S-XL,0.0,S,XL,1.0,4.0,teabag,dumptruck,teabag7,dumptruck8,136.0,177.0,/static/Size_judgement/Stimuli/Size_stims/S/teabag/teabag10.jpg,/static/Size_judgement/Stimuli/Size_stims/XL/dumptruck/dumptruck7.jpg,0.0,dumptruck,teabag,XL,S,4.0,1.0,dumptruck8,teabag7,1.0,5.942,0.942,0.0,
11,,size_choice_confirmation,,html-keyboard-response,11,81960,0.0-1.0-11.0-0.0,0,0,61002,,,,,,2.0,,,,,,,,,,,,,,,,,,,,,,,,,,,,6.5,0.558,,
12,,iti,,html-keyboard-response,12,83462,0.0-1.0-12.0,0,0,61002,,,,,,,,,,,,,,,,,,,,,,,,,,,,,,,,,,8.0,1.5,,
13,,size_choice,,html-keyboard-response,13,84511,0.0-1.0-14.0,0,0,61002,,1047.0,,,68.0,3.0,3.0,1.0,2000.0,S-M,1.0,M,S,2.0,1.0,hairdryer,screws,hairdryer5,screws5,74.0,124.0,/static/Size_judgement/Stimuli/Size_stims/M/hairdryer/hairdryer15.jpg,/static/Size_judgement/Stimuli/Size_stims/S/screws/screws2.jpg,1.0,hairdryer,screws,M,S,2.0,1.0,hairdryer5,screws5,1.0,9.047,1.047,0.0,
14,,size_choice_confirmation,,html-keyboard-response,14,84966,0.0-1.0-15.0-0.0,0,0,61002,,,,,,3.0,,,,,,,,,,,,,,,,,,,,,,,,,,,,9.5,0.453,,
15,,iti,,html-keyboard-response,15,86969,0.0-1.0-16.0,0,0,61002,,,,,,,,,,,,,,,,,,,,,,,,,,,,,,,,,,11.5,2.0,,
16,,size_choice,,html-keyboard-response,16,87736,0.0-1.0-18.0,0,0,61002,,765.0,,,75.0,4.0,4.0,1.0,3500.0,S-XL,0.0,S,XL,1.0,4.0,teabag,car,teabag4,car9,133.0,158.0,/static/Size_judgement/Stimuli/Size_stims/S/teabag/teabag3.jpg,/static/Size_judgement/Stimuli/Size_stims/XL/car/car15.jpg,0.0,car,teabag,XL,S,4.0,1.0,car9,teabag4,1.0,12.265,0.765,0.0,
17,,size_choice_confirmation,,html-keyboard-response,17,88473,0.0-1.0-19.0-0.0,0,0,61002,,,,,,4.0,,,,,,,,,,,,,,,,,,,,,,,,,,,,13.0,0.735,,
18,,iti,,html-keyboard-response,18,91976,0.0-1.0-20.0,0,0,61002,,,,,,,,,,,,,,,,,,,,,,,,,,,,,,,,,,16.5,3.5,,
19,,size_choice,,html-keyboard-response,19,93151,0.0-1.0-22.0,0,0,61002,,1173.0,,,68.0,5.0,5.0,1.0,1500.0,M-L,1.0,L,M,3.0,2.0,cooler,handsaw,cooler10,handsaw7,9.0,86.0,/static/Size_judgement/Stimuli/Size_stims/L/cooler/cooler6.jpg,/static/Size_judgement/Stimuli/Size_stims/M/handsaw/handsaw5.jpg,1.0,cooler,handsaw,L,M,3.0,2.0,cooler10,handsaw7,1.0,17.673000000000002,1.173,0.0,
20,,size_choice_confirmation,,html-keyboard-response,20,93480,0.0-1.0-23.0-0.0,0,0,61002,,,,,,5.0,,,,,,,,,,,,,,,,,,,,,,,,,,,,18.000000000000004,0.327,,
21,,iti,,html-keyboard-response,21,94983,0.0-1.0-24.0,0,0,61002,,,,,,,,,,,,,,,,,,,,,,,,,,,,,,,,,,19.500000000000004,1.5,,
22,,size_choice,,html-keyboard-response,22,95903,0.0-1.0-26.0,0,0,61002,,919.0,,,75.0,6.0,6.0,1.0,2000.0,M-XL,0.0,M,XL,2.0,4.0,basketball,crane,basketball10,crane9,59.0,168.0,/static/Size_judgement/Stimuli/Size_stims/M/basketball/basketball4.jpg,/static/Size_judgement/Stimuli/Size_stims/XL/crane/crane8.jpg,0.0,crane,basketball,XL,M,4.0,2.0,crane9,basketball10,1.0,20.419000000000004,0.919,0.0,
23,,size_choice_confirmation,,html-keyboard-response,23,96488,0.0-1.0-27.0-0.0,0,0,61002,,,,,,6.0,,,,,,,,,,,,,,,,,,,,,,,,,,,,21.000000000000004,0.581,,
24,,iti,,html-keyboard-response,24,98489,0.0-1.0-28.0,0,0,61002,,,,,,,,,,,,,,,,,,,,,,,,,,,,,,,,,,23.000000000000004,2.0,,
25,,size_choice,,html-keyboard-response,25,99320,0.0-1.0-30.0,0,0,61002,,828.0,,,75.0,7.0,7.0,1.0,3000.0,M-XL,0.0,M,XL,2.0,4.0,hairdryer,dumptruck,hairdryer7,dumptruck6,76.0,175.0,/static/Size_judgement/Stimuli/Size_stims/M/hairdryer/hairdryer3.jpg,/static/Size_judgement/Stimuli/Size_stims/XL/dumptruck/dumptruck2.jpg,0.0,dumptruck,hairdryer,XL,M,4.0,2.0,dumptruck6,hairdryer7,1.0,23.828000000000003,0.828,0.0,
26,,size_choice_confirmation,,html-keyboard-response,26,99994,0.0-1.0-31.0-0.0,0,0,61002,,,,,,7.0,,,,,,,,,,,,,,,,,,,,,,,,,,,,24.500000000000004,0.672,,
27,,iti,,html-keyboard-response,27,102995,0.0-1.0-32.0,0,0,61002,,,,,,,,,,,,,,,,,,,,,,,,,,,,,,,,,,27.500000000000004,3.0,,
28,,size_choice,,html-keyboard-response,28,103815,0.0-1.0-34.0,0,0,61002,,818.0,,,75.0,8.0,8.0,1.0,2000.0,XL-XL,,XL,XL,4.0,4.0,van,crane,van2,crane8,191.0,167.0,/static/Size_judgement/Stimuli/Size_stims/XL/van/van4.jpg,/static/Size_judgement/Stimuli/Size_stims/XL/crane/crane10.jpg,0.0,crane,van,XL,XL,4.0,4.0,crane8,van2,,28.318000000000005,0.818,0.0,
29,,size_choice_confirmation,,html-keyboard-response,29,104500,0.0-1.0-35.0-0.0,0,0,61002,,,,,,8.0,,,,,,,,,,,,,,,,,,,,,,,,,,,,29.000000000000004,0.682,,
30,,iti,,html-keyboard-response,30,106501,0.0-1.0-36.0,0,0,61002,,,,,,,,,,,,,,,,,,,,,,,,,,,,,,,,,,31.000000000000004,2.0,,
31,,size_choice,,html-keyboard-response,31,107783,0.0-1.0-38.0,0,0,61002,,1280.0,,,68.0,9.0,9.0,1.0,2000.0,L-L,,L,L,3.0,3.0,dishwasher,cooler,dishwasher7,cooler8,26.0,7.0,/static/Size_judgement/Stimuli/Size_stims/L/dishwasher/dishwasher7.jpg,/static/Size_judgement/Stimuli/Size_stims/L/cooler/cooler5.jpg,1.0,dishwasher,cooler,L,L,3.0,3.0,dishwasher7,cooler8,,32.28,1.28,0.0,
32,,size_choice_confirmation,,html-keyboard-response,32,108006,0.0-1.0-39.0-0.0,0,0,61002,,,,,,9.0,,,,,,,,,,,,,,,,,,,,,,,,,,,,32.5,0.22,,
33,,iti,,html-keyboard-response,33,110008,0.0-1.0-40.0,0,0,61002,,,,,,,,,,,,,,,,,,,,,,,,,,,,,,,,,,34.5,2.0,,
34,,size_choice,,html-keyboard-response,34,111072,0.0-1.0-42.0,0,0,61002,,1063.0,,,68.0,10.0,10.0,1.0,1000.0,M-L,1.0,L,M,3.0,2.0,garbagecan,basketball,garbagecan4,basketball4,33.0,53.0,/static/Size_judgement/Stimuli/Size_stims/L/garbagecan/garbagecan6.jpg,/static/Size_judgement/Stimuli/Size_stims/M/basketball/basketball1.jpg,1.0,garbagecan,basketball,L,M,3.0,2.0,garbagecan4,basketball4,1.0,35.563,1.063,0.0,
35,,size_choice_confirmation,,html-keyboard-response,35,111521,0.0-1.0-43.0-0.0,0,0,61002,,,,,,10.0,,,,,,,,,,,,,,,,,,,,,,,,,,,,36.0,0.437,,
36,,iti,,html-keyboard-response,36,112523,0.0-1.0-44.0,0,0,61002,,,,,,,,,,,,,,,,,,,,,,,,,,,,,,,,,,37.0,1.0,,
37,,size_choice,,html-keyboard-response,37,113511,0.0-1.0-46.0,0,0,61002,,987.0,,,68.0,11.0,11.0,1.0,1000.0,S-L,1.0,L,S,3.0,1.0,dishwasher,screws,dishwasher8,screws8,27.0,127.0,/static/Size_judgement/Stimuli/Size_stims/L/dishwasher/dishwasher3.jpg,/static/Size_judgement/Stimuli/Size_stims/S/screws/screws10.jpg,1.0,dishwasher,screws,L,S,3.0,1.0,dishwasher8,screws8,1.0,37.987,0.987,0.0,
38,,size_choice_confirmation,,html-keyboard-response,38,114026,0.0-1.0-47.0-0.0,0,0,61002,,,,,,11.0,,,,,,,,,,,,,,,,,,,,,,,,,,,,38.5,0.513,,
39,,iti,,html-keyboard-response,39,115029,0.0-1.0-48.0,0,0,61002,,,,,,,,,,,,,,,,,,,,,,,,,,,,,,,,,,39.5,1.0,,
40,,size_choice,,html-keyboard-response,40,115983,0.0-1.0-50.0,0,0,61002,,953.0,,,68.0,12.0,12.0,1.0,1000.0,L-XL,1.0,XL,L,4.0,3.0,tractor,deskchair,tractor6,deskchair5,185.0,14.0,/static/Size_judgement/Stimuli/Size_stims/XL/tractor/tractor3.jpg,/static/Size_judgement/Stimuli/Size_stims/L/deskchair/deskchair7.jpg,1.0,tractor,deskchair,XL,L,4.0,3.0,tractor6,deskchair5,1.0,40.453,0.953,0.0,
41,,size_choice_confirmation,,html-keyboard-response,41,116533,0.0-1.0-51.0-0.0,0,0,61002,,,,,,12.0,,,,,,,,,,,,,,,,,,,,,,,,,,,,41.0,0.547,,
42,,iti,,html-keyboard-response,42,117535,0.0-1.0-52.0,0,0,61002,,,,,,,,,,,,,,,,,,,,,,,,,,,,,,,,,,42.0,1.0,,
43,,size_choice,,html-keyboard-response,43,119007,0.0-1.0-54.0,0,0,61002,,1471.0,,,68.0,13.0,13.0,1.0,1000.0,S-S,,S,S,1.0,1.0,thread,die,thread10,die1,149.0,100.0,/static/Size_judgement/Stimuli/Size_stims/S/thread/thread9.jpg,/static/Size_judgement/Stimuli/Size_stims/S/die/die8.jpg,1.0,thread,die,S,S,1.0,1.0,thread10,die1,,43.471,1.471,0.0,
44,,size_choice_confirmation,,html-keyboard-response,44,119039,0.0-1.0-55.0-0.0,0,0,61002,,,,,,13.0,,,,,,,,,,,,,,,,,,,,,,,,,,,,43.50000000000001,0.029,,
45,,iti,,html-keyboard-response,45,120040,0.0-1.0-56.0,0,0,61002,,,,,,,,,,,,,,,,,,,,,,,,,,,,,,,,,,44.50000000000001,1.0,,
46,,size_choice,,html-keyboard-response,46,121264,0.0-1.0-58.0,0,0,61002,,1222.0,,,75.0,14.0,14.0,1.0,1000.0,M-XL,0.0,M,XL,2.0,4.0,coffeemaker,tractor,coffeemaker4,tractor4,63.0,183.0,/static/Size_judgement/Stimuli/Size_stims/M/coffeemaker/coffeemaker11.jpg,/static/Size_judgement/Stimuli/Size_stims/XL/tractor/tractor4.jpg,0.0,tractor,coffeemaker,XL,M,4.0,2.0,tractor4,coffeemaker4,1.0,45.72200000000001,1.222,0.0,
47,,size_choice_confirmation,,html-keyboard-response,47,121545,0.0-1.0-59.0-0.0,0,0,61002,,,,,,14.0,,,,,,,,,,,,,,,,,,,,,,,,,,,,46.00000000000001,0.278,,
48,,iti,,html-keyboard-response,48,122546,0.0-1.0-60.0,0,0,61002,,,,,,,,,,,,,,,,,,,,,,,,,,,,,,,,,,47.00000000000001,1.0,,
49,,size_choice,,html-keyboard-response,49,123888,0.0-1.0-62.0,0,0,61002,,1339.0,,,75.0,15.0,15.0,1.0,3500.0,M-XL,0.0,M,XL,2.0,4.0,handsaw,van,handsaw5,van10,84.0,199.0,/static/Size_judgement/Stimuli/Size_stims/M/handsaw/handsaw1.jpg,/static/Size_judgement/Stimuli/Size_stims/XL/van/van8.jpg,0.0,van,handsaw,XL,M,4.0,2.0,van10,handsaw5,1.0,48.339000000000006,1.339,0.0,
50,,size_choice_confirmation,,html-keyboard-response,50,124051,0.0-1.0-63.0-0.0,0,0,61002,,,,,,15.0,,,,,,,,,,,,,,,,,,,,,,,,,,,,48.50000000000001,0.161,,
51,,iti,,html-keyboard-response,51,127553,0.0-1.0-64.0,0,0,61002,,,,,,,,,,,,,,,,,,,,,,,,,,,,,,,,,,52.00000000000001,3.5,,
52,,size_choice,,html-keyboard-response,52,128631,0.0-1.0-66.0,0,0,61002,,1077.0,,,68.0,16.0,16.0,1.0,1500.0,XL-XL,,XL,XL,4.0,4.0,dumptruck,car,dumptruck2,car6,171.0,155.0,/static/Size_judgement/Stimuli/Size_stims/XL/dumptruck/dumptruck8.jpg,/static/Size_judgement/Stimuli/Size_stims/XL/car/car12.jpg,1.0,dumptruck,car,XL,XL,4.0,4.0,dumptruck2,car6,,53.077000000000005,1.077,0.0,
53,,size_choice_confirmation,,html-keyboard-response,53,129057,0.0-1.0-67.0-0.0,0,0,61002,,,,,,16.0,,,,,,,,,,,,,,,,,,,,,,,,,,,,53.50000000000001,0.423,,
54,,iti,,html-keyboard-response,54,130558,0.0-1.0-68.0,0,0,61002,,,,,,,,,,,,,,,,,,,,,,,,,,,,,,,,,,55.00000000000001,1.5,,
55,,size_choice,,html-keyboard-response,55,131664,0.0-1.0-70.0,0,0,61002,,1105.0,,,68.0,17.0,17.0,1.0,1500.0,S-XL,1.0,XL,S,4.0,1.0,van,screws,van1,screws6,190.0,125.0,/static/Size_judgement/Stimuli/Size_stims/XL/van/van5.jpg,/static/Size_judgement/Stimuli/Size_stims/S/screws/screws3.jpg,1.0,van,screws,XL,S,4.0,1.0,van1,screws6,1.0,56.105,1.105,0.0,
56,,size_choice_confirmation,,html-keyboard-response,56,132062,0.0-1.0-71.0-0.0,0,0,61002,,,,,,17.0,,,,,,,,,,,,,,,,,,,,,,,,,,,,56.50000000000001,0.395,,
57,,iti,,html-keyboard-response,57,133565,0.0-1.0-72.0,0,0,61002,,,,,,,,,,,,,,,,,,,,,,,,,,,,,,,,,,58.00000000000001,1.5,,
58,,size_choice,,html-keyboard-response,58,134287,0.0-1.0-74.0,0,0,61002,,720.0,,,68.0,18.0,18.0,1.0,3500.0,M-XL,1.0,XL,M,4.0,2.0,car,basketball,car5,basketball8,154.0,57.0,/static/Size_judgement/Stimuli/Size_stims/XL/car/car11.jpg,/static/Size_judgement/Stimuli/Size_stims/M/basketball/basketball7.jpg,1.0,car,basketball,XL,M,4.0,2.0,car5,basketball8,1.0,58.720000000000006,0.72,0.0,
59,,size_choice_confirmation,,html-keyboard-response,59,135069,0.0-1.0-75.0-0.0,0,0,61002,,,,,,18.0,,,,,,,,,,,,,,,,,,,,,,,,,,,,59.50000000000001,0.78,,
60,,iti,,html-keyboard-response,60,138583,0.0-1.0-76.0,0,0,61002,,,,,,,,,,,,,,,,,,,,,,,,,,,,,,,,,,63.00000000000001,3.5,,
61,,size_choice,,html-keyboard-response,61,139470,0.0-1.0-78.0,0,0,61002,,886.0,,,68.0,19.0,19.0,1.0,1500.0,S-L,1.0,L,S,3.0,1.0,cooler,thread,cooler7,thread7,6.0,146.0,/static/Size_judgement/Stimuli/Size_stims/L/cooler/cooler4.jpg,/static/Size_judgement/Stimuli/Size_stims/S/thread/thread3.jpg,1.0,cooler,thread,L,S,3.0,1.0,cooler7,thread7,1.0,63.88600000000001,0.886,0.0,
62,,size_choice_confirmation,,html-keyboard-response,62,140088,0.0-1.0-79.0-0.0,0,0,61002,,,,,,19.0,,,,,,,,,,,,,,,,,,,,,,,,,,,,64.50000000000001,0.614,,
63,,iti,,html-keyboard-response,63,141590,0.0-1.0-80.0,0,0,61002,,,,,,,,,,,,,,,,,,,,,,,,,,,,,,,,,,66.00000000000001,1.5,,
64,,size_choice,,html-keyboard-response,64,142639,0.0-1.0-82.0,0,0,61002,,1048.0,,,75.0,20.0,20.0,1.0,1000.0,S-S,,S,S,1.0,1.0,paperclip,teabag,paperclip8,teabag9,117.0,138.0,/static/Size_judgement/Stimuli/Size_stims/S/paperclip/paperclip5.jpg,/static/Size_judgement/Stimuli/Size_stims/S/teabag/teabag5.jpg,0.0,teabag,paperclip,S,S,1.0,1.0,teabag9,paperclip8,,67.04800000000002,1.048,0.0,
65,,size_choice_confirmation,,html-keyboard-response,65,143094,0.0-1.0-83.0-0.0,0,0,61002,,,,,,20.0,,,,,,,,,,,,,,,,,,,,,,,,,,,,67.50000000000001,0.452,,
66,,iti,,html-keyboard-response,66,144096,0.0-1.0-84.0,0,0,61002,,,,,,,,,,,,,,,,,,,,,,,,,,,,,,,,,,68.50000000000001,1.0,,
67,,size_choice,,html-keyboard-response,67,145598,0.0-1.0-86.0,0,0,61002,,,,,,21.0,21.0,1.0,1000.0,S-S,,S,S,1.0,1.0,die,paperclip,die6,paperclip6,105.0,115.0,/static/Size_judgement/Stimuli/Size_stims/S/die/die1.jpg,/static/Size_judgement/Stimuli/Size_stims/S/paperclip/paperclip6.jpg,,,,,,,,,,,70.00000000000001,1.5,1.0,
68,,iti,,html-keyboard-response,68,146607,0.0-1.0-88.0,0,0,61002,,,,,,,,,,,,,,,,,,,,,,,,,,,,,,,,,,71.00000000000001,1.0,,
69,,size_choice,,html-keyboard-response,69,147654,0.0-1.0-90.0,0,0,61002,,1045.0,,,75.0,22.0,22.0,1.0,1000.0,L-XL,0.0,L,XL,3.0,4.0,dishwasher,dumptruck,dishwasher3,dumptruck3,22.0,172.0,/static/Size_judgement/Stimuli/Size_stims/L/dishwasher/dishwasher8.jpg,/static/Size_judgement/Stimuli/Size_stims/XL/dumptruck/dumptruck10.jpg,0.0,dumptruck,dishwasher,XL,L,4.0,3.0,dumptruck3,dishwasher3,1.0,72.04500000000002,1.045,0.0,
70,,size_choice_confirmation,,html-keyboard-response,70,148112,0.0-1.0-91.0-0.0,0,0,61002,,,,,,22.0,,,,,,,,,,,,,,,,,,,,,,,,,,,,72.50000000000001,0.455,,
71,,iti,,html-keyboard-response,71,149113,0.0-1.0-92.0,0,0,61002,,,,,,,,,,,,,,,,,,,,,,,,,,,,,,,,,,73.50000000000001,1.0,,
72,,size_choice,,html-keyboard-response,72,150191,0.0-1.0-94.0,0,0,61002,,1075.0,,,68.0,23.0,23.0,1.0,3000.0,M-M,,M,M,2.0,2.0,handsaw,hairdryer,handsaw8,hairdryer3,87.0,72.0,/static/Size_judgement/Stimuli/Size_stims/M/handsaw/handsaw7.jpg,/static/Size_judgement/Stimuli/Size_stims/M/hairdryer/hairdryer17.jpg,1.0,handsaw,hairdryer,M,M,2.0,2.0,handsaw8,hairdryer3,,74.57500000000002,1.075,0.0,
73,,size_choice_confirmation,,html-keyboard-response,73,150618,0.0-1.0-95.0-0.0,0,0,61002,,,,,,23.0,,,,,,,,,,,,,,,,,,,,,,,,,,,,75.00000000000001,0.425,,
74,,iti,,html-keyboard-response,74,153620,0.0-1.0-96.0,0,0,61002,,,,,,,,,,,,,,,,,,,,,,,,,,,,,,,,,,78.00000000000001,3.0,,
75,,size_choice,,html-keyboard-response,75,154639,0.0-1.0-98.0,0,0,61002,,1017.0,,,68.0,24.0,24.0,1.0,1000.0,S-M,1.0,M,S,2.0,1.0,basketball,paperclip,basketball2,paperclip10,51.0,119.0,/static/Size_judgement/Stimuli/Size_stims/M/basketball/basketball8.jpg,/static/Size_judgement/Stimuli/Size_stims/S/paperclip/paperclip10.jpg,1.0,basketball,paperclip,M,S,2.0,1.0,basketball2,paperclip10,1.0,79.01700000000001,1.017,0.0,
76,,size_choice_confirmation,,html-keyboard-response,76,155125,0.0-1.0-99.0-0.0,0,0,61002,,,,,,24.0,,,,,,,,,,,,,,,,,,,,,,,,,,,,79.50000000000001,0.483,,
77,,iti,,html-keyboard-response,77,156126,0.0-1.0-100.0,0,0,61002,,,,,,,,,,,,,,,,,,,,,,,,,,,,,,,,,,80.50000000000001,1.0,,
78,,size_choice,,html-keyboard-response,78,156839,0.0-1.0-102.0,0,0,61002,,710.0,,,68.0,25.0,25.0,1.0,2000.0,S-L,1.0,L,S,3.0,1.0,dishwasher,paperclip,dishwasher10,paperclip9,29.0,118.0,/static/Size_judgement/Stimuli/Size_stims/L/dishwasher/dishwasher1.jpg,/static/Size_judgement/Stimuli/Size_stims/S/paperclip/paperclip4.jpg,1.0,dishwasher,paperclip,L,S,3.0,1.0,dishwasher10,paperclip9,1.0,81.21000000000001,0.71,0.0,
79,,size_choice_confirmation,,html-keyboard-response,79,157632,0.0-1.0-103.0-0.0,0,0,61002,,,,,,25.0,,,,,,,,,,,,,,,,,,,,,,,,,,,,82.00000000000001,0.79,,
80,,iti,,html-keyboard-response,80,159634,0.0-1.0-104.0,0,0,61002,,,,,,,,,,,,,,,,,,,,,,,,,,,,,,,,,,84.00000000000001,2.0,,
81,,size_choice,,html-keyboard-response,81,160590,0.0-1.0-106.0,0,0,61002,,954.0,,,68.0,26.0,26.0,1.0,3000.0,S-L,1.0,L,S,3.0,1.0,deskchair,thread,deskchair10,thread2,19.0,141.0,/static/Size_judgement/Stimuli/Size_stims/L/deskchair/deskchair2.jpg,/static/Size_judgement/Stimuli/Size_stims/S/thread/thread6.jpg,1.0,deskchair,thread,L,S,3.0,1.0,deskchair10,thread2,1.0,84.95400000000001,0.954,0.0,
82,,size_choice_confirmation,,html-keyboard-response,82,161138,0.0-1.0-107.0-0.0,0,0,61002,,,,,,26.0,,,,,,,,,,,,,,,,,,,,,,,,,,,,85.50000000000001,0.546,,
83,,iti,,html-keyboard-response,83,164140,0.0-1.0-108.0,0,0,61002,,,,,,,,,,,,,,,,,,,,,,,,,,,,,,,,,,88.50000000000001,3.0,,
84,,size_choice,,html-keyboard-response,84,165239,0.0-1.0-110.0,0,0,61002,,1097.0,,,68.0,27.0,27.0,1.0,1000.0,L-L,,L,L,3.0,3.0,mailbox,garbagecan,mailbox5,garbagecan8,44.0,37.0,/static/Size_judgement/Stimuli/Size_stims/L/mailbox/mailbox4.jpg,/static/Size_judgement/Stimuli/Size_stims/L/garbagecan/garbagecan13.jpg,1.0,mailbox,garbagecan,L,L,3.0,3.0,mailbox5,garbagecan8,,89.59700000000001,1.097,0.0,
85,,size_choice_confirmation,,html-keyboard-response,85,165645,0.0-1.0-111.0-0.0,0,0,61002,,,,,,27.0,,,,,,,,,,,,,,,,,,,,,,,,,,,,90.00000000000001,0.403,,
86,,iti,,html-keyboard-response,86,166647,0.0-1.0-112.0,0,0,61002,,,,,,,,,,,,,,,,,,,,,,,,,,,,,,,,,,91.0,1.0,,
87,,size_choice,,html-keyboard-response,87,168015,0.0-1.0-114.0,0,0,61002,,1366.0,,,75.0,28.0,28.0,1.0,2000.0,M-L,0.0,M,L,2.0,3.0,ketchup,mailbox,ketchup2,mailbox9,91.0,48.0,/static/Size_judgement/Stimuli/Size_stims/M/ketchup/ketchup9.jpg,/static/Size_judgement/Stimuli/Size_stims/L/mailbox/mailbox9.jpg,0.0,mailbox,ketchup,L,M,3.0,2.0,mailbox9,ketchup2,1.0,92.366,1.366,0.0,
88,,size_choice_confirmation,,html-keyboard-response,88,168151,0.0-1.0-115.0-0.0,0,0,61002,,,,,,28.0,,,,,,,,,,,,,,,,,,,,,,,,,,,,92.5,0.134,,
89,,iti,,html-keyboard-response,89,170153,0.0-1.0-116.0,0,0,61002,,,,,,,,,,,,,,,,,,,,,,,,,,,,,,,,,,94.5,2.0,,
90,,size_choice,,html-keyboard-response,90,171006,0.0-1.0-118.0,0,0,61002,,852.0,,,75.0,29.0,29.0,1.0,1000.0,S-XL,0.0,S,XL,1.0,4.0,die,dumptruck,die5,dumptruck9,104.0,178.0,/static/Size_judgement/Stimuli/Size_stims/S/die/die3.jpg,/static/Size_judgement/Stimuli/Size_stims/XL/dumptruck/dumptruck5.jpg,0.0,dumptruck,die,XL,S,4.0,1.0,dumptruck9,die5,1.0,95.35200000000002,0.852,0.0,
91,,size_choice_confirmation,,html-keyboard-response,91,171658,0.0-1.0-119.0-0.0,0,0,61002,,,,,,29.0,,,,,,,,,,,,,,,,,,,,,,,,,,,,96.0,0.648,,
92,,iti,,html-keyboard-response,92,172660,0.0-1.0-120.0,0,0,61002,,,,,,,,,,,,,,,,,,,,,,,,,,,,,,,,,,97.0,1.0,,
93,,size_choice,,html-keyboard-response,93,173457,0.0-1.0-122.0,0,0,61002,,795.0,,,68.0,30.0,30.0,1.0,1000.0,S-XL,1.0,XL,S,4.0,1.0,tractor,die,tractor7,die2,186.0,101.0,/static/Size_judgement/Stimuli/Size_stims/XL/tractor/tractor2.jpg,/static/Size_judgement/Stimuli/Size_stims/S/die/die9.jpg,1.0,tractor,die,XL,S,4.0,1.0,tractor7,die2,1.0,97.79500000000002,0.795,0.0,
94,,size_choice_confirmation,,html-keyboard-response,94,174164,0.0-1.0-123.0-0.0,0,0,61002,,,,,,30.0,,,,,,,,,,,,,,,,,,,,,,,,,,,,98.5,0.705,,
95,,iti,,html-keyboard-response,95,175166,0.0-1.0-124.0,0,0,61002,,,,,,,,,,,,,,,,,,,,,,,,,,,,,,,,,,99.5,1.0,,
96,,size_choice,,html-keyboard-response,96,176255,0.0-1.0-126.0,0,0,61002,,1088.0,,,68.0,31.0,31.0,1.0,1500.0,S-L,1.0,L,S,3.0,1.0,garbagecan,thread,garbagecan2,thread9,31.0,148.0,/static/Size_judgement/Stimuli/Size_stims/L/garbagecan/garbagecan5.jpg,/static/Size_judgement/Stimuli/Size_stims/S/thread/thread8.jpg,1.0,garbagecan,thread,L,S,3.0,1.0,garbagecan2,thread9,1.0,100.588,1.088,0.0,
97,,size_choice_confirmation,,html-keyboard-response,97,176670,0.0-1.0-127.0-0.0,0,0,61002,,,,,,31.0,,,,,,,,,,,,,,,,,,,,,,,,,,,,101.0,0.412,,
98,,iti,,html-keyboard-response,98,178172,0.0-1.0-128.0,0,0,61002,,,,,,,,,,,,,,,,,,,,,,,,,,,,,,,,,,102.5,1.5,,
99,,size_choice,,html-keyboard-response,99,179319,0.0-1.0-130.0,0,0,61002,,1144.0,,,75.0,32.0,32.0,1.0,2000.0,M-L,0.0,M,L,2.0,3.0,handsaw,deskchair,handsaw9,deskchair2,88.0,11.0,/static/Size_judgement/Stimuli/Size_stims/M/handsaw/handsaw6.jpg,/static/Size_judgement/Stimuli/Size_stims/L/deskchair/deskchair8.jpg,0.0,deskchair,handsaw,L,M,3.0,2.0,deskchair2,handsaw9,1.0,103.64400000000002,1.144,0.0,
100,,size_choice_confirmation,,html-keyboard-response,100,179678,0.0-1.0-131.0-0.0,0,0,61002,,,,,,32.0,,,,,,,,,,,,,,,,,,,,,,,,,,,,104.0,0.356,,
101,,iti,,html-keyboard-response,101,181680,0.0-1.0-132.0,0,0,61002,,,,,,,,,,,,,,,,,,,,,,,,,,,,,,,,,,106.0,2.0,,
102,,size_choice,,html-keyboard-response,102,182343,0.0-1.0-134.0,0,0,61002,,661.0,,,68.0,33.0,33.0,1.0,1000.0,S-L,1.0,L,S,3.0,1.0,garbagecan,teabag,garbagecan3,teabag8,32.0,137.0,/static/Size_judgement/Stimuli/Size_stims/L/garbagecan/garbagecan7.jpg,/static/Size_judgement/Stimuli/Size_stims/S/teabag/teabag7.jpg,1.0,garbagecan,teabag,L,S,3.0,1.0,garbagecan3,teabag8,1.0,106.66100000000002,0.661,0.0,
103,,size_choice_confirmation,,html-keyboard-response,103,183184,0.0-1.0-135.0-0.0,0,0,61002,,,,,,33.0,,,,,,,,,,,,,,,,,,,,,,,,,,,,107.5,0.839,,
104,,iti,,html-keyboard-response,104,184186,0.0-1.0-136.0,0,0,61002,,,,,,,,,,,,,,,,,,,,,,,,,,,,,,,,,,108.5,1.0,,
105,,size_choice,,html-keyboard-response,105,185231,0.0-1.0-138.0,0,0,61002,,1043.0,,,75.0,34.0,34.0,1.0,1000.0,M-L,0.0,M,L,2.0,3.0,handsaw,dishwasher,handsaw2,dishwasher4,81.0,23.0,/static/Size_judgement/Stimuli/Size_stims/M/handsaw/handsaw9.jpg,/static/Size_judgement/Stimuli/Size_stims/L/dishwasher/dishwasher5.jpg,0.0,dishwasher,handsaw,L,M,3.0,2.0,dishwasher4,handsaw2,1.0,109.54300000000002,1.043,0.0,
106,,size_choice_confirmation,,html-keyboard-response,106,185690,0.0-1.0-139.0-0.0,0,0,61002,,,,,,34.0,,,,,,,,,,,,,,,,,,,,,,,,,,,,110.0,0.457,,
107,,iti,,html-keyboard-response,107,186692,0.0-1.0-140.0,0,0,61002,,,,,,,,,,,,,,,,,,,,,,,,,,,,,,,,,,111.0,1.0,,
108,,size_choice,,html-keyboard-response,108,187759,0.0-1.0-142.0,0,0,61002,,1065.0,,,68.0,35.0,35.0,1.0,1500.0,M-L,1.0,L,M,3.0,2.0,dishwasher,ketchup,dishwasher1,ketchup4,20.0,93.0,/static/Size_judgement/Stimuli/Size_stims/L/dishwasher/dishwasher10.jpg,/static/Size_judgement/Stimuli/Size_stims/M/ketchup/ketchup2.jpg,1.0,dishwasher,ketchup,L,M,3.0,2.0,dishwasher1,ketchup4,1.0,112.065,1.065,0.0,
109,,size_choice_confirmation,,html-keyboard-response,109,188196,0.0-1.0-143.0-0.0,0,0,61002,,,,,,35.0,,,,,,,,,,,,,,,,,,,,,,,,,,,,112.5,0.435,,
110,,iti,,html-keyboard-response,110,189698,0.0-1.0-144.0,0,0,61002,,,,,,,,,,,,,,,,,,,,,,,,,,,,,,,,,,114.0,1.5,,
111,,size_choice,,html-keyboard-response,111,191202,0.0-1.0-146.0,0,0,61002,,,,,,36.0,36.0,1.0,1500.0,M-L,0.0,M,L,2.0,3.0,hairdryer,cooler,hairdryer6,cooler3,75.0,2.0,/static/Size_judgement/Stimuli/Size_stims/M/hairdryer/hairdryer8.jpg,/static/Size_judgement/Stimuli/Size_stims/L/cooler/cooler2.jpg,,,,,,,,,,,115.5,1.5,1.0,
112,,iti,,html-keyboard-response,112,192704,0.0-1.0-148.0,0,0,61002,,,,,,,,,,,,,,,,,,,,,,,,,,,,,,,,,,117.0,1.5,,
113,,size_choice,,html-keyboard-response,113,193783,0.0-1.0-150.0,0,0,61002,,1077.0,,,68.0,37.0,37.0,1.0,1000.0,S-XL,1.0,XL,S,4.0,1.0,car,teabag,car4,teabag10,153.0,139.0,/static/Size_judgement/Stimuli/Size_stims/XL/car/car6.jpg,/static/Size_judgement/Stimuli/Size_stims/S/teabag/teabag4.jpg,1.0,car,teabag,XL,S,4.0,1.0,car4,teabag10,1.0,118.077,1.077,0.0,
114,,size_choice_confirmation,,html-keyboard-response,114,194209,0.0-1.0-151.0-0.0,0,0,61002,,,,,,37.0,,,,,,,,,,,,,,,,,,,,,,,,,,,,118.5,0.423,,
115,,iti,,html-keyboard-response,115,195211,0.0-1.0-152.0,0,0,61002,,,,,,,,,,,,,,,,,,,,,,,,,,,,,,,,,,119.5,1.0,,
116,,size_choice,,html-keyboard-response,116,196119,0.0-1.0-154.0,0,0,61002,,907.0,,,68.0,38.0,38.0,1.0,1500.0,M-XL,1.0,XL,M,4.0,2.0,tractor,handsaw,tractor8,handsaw10,187.0,89.0,/static/Size_judgement/Stimuli/Size_stims/XL/tractor/tractor10.jpg,/static/Size_judgement/Stimuli/Size_stims/M/handsaw/handsaw10.jpg,1.0,tractor,handsaw,XL,M,4.0,2.0,tractor8,handsaw10,1.0,120.407,0.907,0.0,
117,,size_choice_confirmation,,html-keyboard-response,117,196715,0.0-1.0-155.0-0.0,0,0,61002,,,,,,38.0,,,,,,,,,,,,,,,,,,,,,,,,,,,,121.0,0.593,,
118,,iti,,html-keyboard-response,118,198217,0.0-1.0-156.0,0,0,61002,,,,,,,,,,,,,,,,,,,,,,,,,,,,,,,,,,122.5,1.5,,
119,,size_choice,,html-keyboard-response,119,199080,0.0-1.0-158.0,0,0,61002,,861.0,,,68.0,39.0,39.0,1.0,1500.0,S-M,1.0,M,S,2.0,1.0,basketball,screws,basketball6,screws9,55.0,128.0,/static/Size_judgement/Stimuli/Size_stims/M/basketball/basketball2.jpg,/static/Size_judgement/Stimuli/Size_stims/S/screws/screws8.jpg,1.0,basketball,screws,M,S,2.0,1.0,basketball6,screws9,1.0,123.36100000000002,0.861,0.0,
120,,size_choice_confirmation,,html-keyboard-response,120,199722,0.0-1.0-159.0-0.0,0,0,61002,,,,,,39.0,,,,,,,,,,,,,,,,,,,,,,,,,,,,124.0,0.639,,
121,,iti,,html-keyboard-response,121,201224,0.0-1.0-160.0,0,0,61002,,,,,,,,,,,,,,,,,,,,,,,,,,,,,,,,,,125.5,1.5,,
122,,size_choice,,html-keyboard-response,122,202015,0.0-1.0-162.0,0,0,61002,,790.0,,,75.0,40.0,40.0,1.0,1000.0,M-XL,0.0,M,XL,2.0,4.0,hairdryer,dumptruck,hairdryer1,dumptruck5,70.0,174.0,/static/Size_judgement/Stimuli/Size_stims/M/hairdryer/hairdryer11.jpg,/static/Size_judgement/Stimuli/Size_stims/XL/dumptruck/dumptruck3.jpg,0.0,dumptruck,hairdryer,XL,M,4.0,2.0,dumptruck5,hairdryer1,1.0,126.29000000000002,0.79,0.0,
123,,size_choice_confirmation,,html-keyboard-response,123,202728,0.0-1.0-163.0-0.0,0,0,61002,,,,,,40.0,,,,,,,,,,,,,,,,,,,,,,,,,,,,127.0,0.71,,
124,,iti,,html-keyboard-response,124,203731,0.0-1.0-164.0,0,0,61002,,,,,,,,,,,,,,,,,,,,,,,,,,,,,,,,,,128.0,1.0,,
125,,size_choice,,html-keyboard-response,125,204671,0.0-1.0-166.0,0,0,61002,,939.0,,,75.0,41.0,41.0,1.0,1500.0,S-L,0.0,S,L,1.0,3.0,paperclip,mailbox,paperclip2,mailbox7,111.0,46.0,/static/Size_judgement/Stimuli/Size_stims/S/paperclip/paperclip8.jpg,/static/Size_judgement/Stimuli/Size_stims/L/mailbox/mailbox7.jpg,0.0,mailbox,paperclip,L,S,3.0,1.0,mailbox7,paperclip2,1.0,128.939,0.939,0.0,
126,,size_choice_confirmation,,html-keyboard-response,126,205235,0.0-1.0-167.0-0.0,0,0,61002,,,,,,41.0,,,,,,,,,,,,,,,,,,,,,,,,,,,,129.5,0.561,,
127,,iti,,html-keyboard-response,127,206737,0.0-1.0-168.0,0,0,61002,,,,,,,,,,,,,,,,,,,,,,,,,,,,,,,,,,131.0,1.5,,
128,,size_choice,,html-keyboard-response,128,207487,0.0-1.0-170.0,0,0,61002,,748.0,,,75.0,42.0,42.0,1.0,2000.0,S-XL,0.0,S,XL,1.0,4.0,thread,dumptruck,thread8,dumptruck10,147.0,179.0,/static/Size_judgement/Stimuli/Size_stims/S/thread/thread10.jpg,/static/Size_judgement/Stimuli/Size_stims/XL/dumptruck/dumptruck4.jpg,0.0,dumptruck,thread,XL,S,4.0,1.0,dumptruck10,thread8,1.0,131.748,0.748,0.0,
129,,size_choice_confirmation,,html-keyboard-response,129,208242,0.0-1.0-171.0-0.0,0,0,61002,,,,,,42.0,,,,,,,,,,,,,,,,,,,,,,,,,,,,132.5,0.752,,
130,,iti,,html-keyboard-response,130,210244,0.0-1.0-172.0,0,0,61002,,,,,,,,,,,,,,,,,,,,,,,,,,,,,,,,,,134.5,2.0,,
131,,size_choice,,html-keyboard-response,131,211120,0.0-1.0-174.0,0,0,61002,,874.0,,,68.0,43.0,43.0,1.0,3000.0,L-XL,0.0,L,XL,3.0,4.0,cooler,tractor,cooler1,tractor10,0.0,189.0,/static/Size_judgement/Stimuli/Size_stims/L/cooler/cooler8.jpg,/static/Size_judgement/Stimuli/Size_stims/XL/tractor/tractor8.jpg,1.0,cooler,tractor,L,XL,3.0,4.0,cooler1,tractor10,0.0,135.374,0.874,0.0,
132,,size_choice_confirmation,,html-keyboard-response,132,211748,0.0-1.0-175.0-0.0,0,0,61002,,,,,,43.0,,,,,,,,,,,,,,,,,,,,,,,,,,,,136.0,0.626,,
133,,iti,,html-keyboard-response,133,214750,0.0-1.0-176.0,0,0,61002,,,,,,,,,,,,,,,,,,,,,,,,,,,,,,,,,,139.0,3.0,,
134,,size_choice,,html-keyboard-response,134,215631,0.0-1.0-178.0,0,0,61002,,878.0,,,75.0,44.0,44.0,1.0,1500.0,M-M,,M,M,2.0,2.0,hairdryer,coffeemaker,hairdryer10,coffeemaker1,79.0,60.0,/static/Size_judgement/Stimuli/Size_stims/M/hairdryer/hairdryer6.jpg,/static/Size_judgement/Stimuli/Size_stims/M/coffeemaker/coffeemaker14.jpg,0.0,coffeemaker,hairdryer,M,M,2.0,2.0,coffeemaker1,hairdryer10,,139.878,0.878,0.0,
135,,size_choice_confirmation,,html-keyboard-response,135,216255,0.0-1.0-179.0-0.0,0,0,61002,,,,,,44.0,,,,,,,,,,,,,,,,,,,,,,,,,,,,140.5,0.622,,
136,,iti,,html-keyboard-response,136,217757,0.0-1.0-180.0,0,0,61002,,,,,,,,,,,,,,,,,,,,,,,,,,,,,,,,,,142.0,1.5,,
137,,block_over,,html-keyboard-response,137,225600,0.0-1.0-181.0-0.0,0,0,61002,,7841.0,,,68.0,44.0,,,,,,,,,,,,,,,,,,,,,,,,,,,,,,,
138,,size_choice,,html-keyboard-response,138,226471,0.0-1.0-182.0,0,0,61002,,870.0,,,75.0,45.0,45.0,2.0,3500.0,L-XL,0.0,L,XL,3.0,4.0,cooler,car,cooler4,car3,3.0,152.0,/static/Size_judgement/Stimuli/Size_stims/L/cooler/cooler3.jpg,/static/Size_judgement/Stimuli/Size_stims/XL/car/car4.jpg,0.0,car,cooler,XL,L,4.0,3.0,car3,cooler4,1.0,142.87,0.87,0.0,
139,,size_choice_confirmation,,html-keyboard-response,139,227104,0.0-1.0-183.0-0.0,0,0,61002,,,,,,45.0,,,,,,,,,,,,,,,,,,,,,,,,,,,,143.5,0.63,,
140,,iti,,html-keyboard-response,140,230606,0.0-1.0-184.0,0,0,61002,,,,,,,,,,,,,,,,,,,,,,,,,,,,,,,,,,147.0,3.5,,
141,,size_choice,,html-keyboard-response,141,231759,0.0-1.0-186.0,0,0,61002,,1152.0,,,68.0,46.0,46.0,2.0,2000.0,L-L,,L,L,3.0,3.0,deskchair,cooler,deskchair8,cooler2,17.0,1.0,/static/Size_judgement/Stimuli/Size_stims/L/deskchair/deskchair1.jpg,/static/Size_judgement/Stimuli/Size_stims/L/cooler/cooler9.jpg,1.0,deskchair,cooler,L,L,3.0,3.0,deskchair8,cooler2,,148.152,1.152,0.0,
142,,size_choice_confirmation,,html-keyboard-response,142,232110,0.0-1.0-187.0-0.0,0,0,61002,,,,,,46.0,,,,,,,,,,,,,,,,,,,,,,,,,,,,148.5,0.348,,
143,,iti,,html-keyboard-response,143,234112,0.0-1.0-188.0,0,0,61002,,,,,,,,,,,,,,,,,,,,,,,,,,,,,,,,,,150.5,2.0,,
144,,size_choice,,html-keyboard-response,144,235463,0.0-1.0-190.0,0,0,61002,,1350.0,,,75.0,47.0,47.0,2.0,1500.0,M-L,0.0,M,L,2.0,3.0,basketball,cooler,basketball3,cooler9,52.0,8.0,/static/Size_judgement/Stimuli/Size_stims/M/basketball/basketball10.jpg,/static/Size_judgement/Stimuli/Size_stims/L/cooler/cooler7.jpg,0.0,cooler,basketball,L,M,3.0,2.0,cooler9,basketball3,1.0,151.85,1.35,0.0,
145,,size_choice_confirmation,,html-keyboard-response,145,235616,0.0-1.0-191.0-0.0,0,0,61002,,,,,,47.0,,,,,,,,,,,,,,,,,,,,,,,,,,,,152.0,0.15,,
146,,iti,,html-keyboard-response,146,237118,0.0-1.0-192.0,0,0,61002,,,,,,,,,,,,,,,,,,,,,,,,,,,,,,,,,,153.5,1.5,,
147,,size_choice,,html-keyboard-response,147,238080,0.0-1.0-194.0,0,0,61002,,959.0,,,68.0,48.0,48.0,2.0,1000.0,M-XL,1.0,XL,M,4.0,2.0,car,ketchup,car8,ketchup5,157.0,94.0,/static/Size_judgement/Stimuli/Size_stims/XL/car/car14.jpg,/static/Size_judgement/Stimuli/Size_stims/M/ketchup/ketchup3.jpg,1.0,car,ketchup,XL,M,4.0,2.0,car8,ketchup5,1.0,154.459,0.959,0.0,
148,,size_choice_confirmation,,html-keyboard-response,148,238624,0.0-1.0-195.0-0.0,0,0,61002,,,,,,48.0,,,,,,,,,,,,,,,,,,,,,,,,,,,,155.0,0.541,,
149,,iti,,html-keyboard-response,149,239627,0.0-1.0-196.0,0,0,61002,,,,,,,,,,,,,,,,,,,,,,,,,,,,,,,,,,156.0,1.0,,
150,,size_choice,,html-keyboard-response,150,240895,0.0-1.0-198.0,0,0,61002,,1267.0,,,75.0,49.0,49.0,2.0,1000.0,S-S,,S,S,1.0,1.0,die,thread,die3,thread6,102.0,145.0,/static/Size_judgement/Stimuli/Size_stims/S/die/die10.jpg,/static/Size_judgement/Stimuli/Size_stims/S/thread/thread2.jpg,0.0,thread,die,S,S,1.0,1.0,thread6,die3,,157.267,1.267,0.0,
151,,size_choice_confirmation,,html-keyboard-response,151,241131,0.0-1.0-199.0-0.0,0,0,61002,,,,,,49.0,,,,,,,,,,,,,,,,,,,,,,,,,,,,157.5,0.233,,
152,,iti,,html-keyboard-response,152,242132,0.0-1.0-200.0,0,0,61002,,,,,,,,,,,,,,,,,,,,,,,,,,,,,,,,,,158.5,1.0,,
153,,size_choice,,html-keyboard-response,153,242815,0.0-1.0-202.0,0,0,61002,,681.0,,,75.0,50.0,50.0,2.0,2000.0,S-XL,0.0,S,XL,1.0,4.0,thread,car,thread3,car10,142.0,159.0,/static/Size_judgement/Stimuli/Size_stims/S/thread/thread4.jpg,/static/Size_judgement/Stimuli/Size_stims/XL/car/car9.jpg,0.0,car,thread,XL,S,4.0,1.0,car10,thread3,1.0,159.181,0.681,0.0,
154,,size_choice_confirmation,,html-keyboard-response,154,243637,0.0-1.0-203.0-0.0,0,0,61002,,,,,,50.0,,,,,,,,,,,,,,,,,,,,,,,,,,,,160.0,0.819,,
155,,iti,,html-keyboard-response,155,245638,0.0-1.0-204.0,0,0,61002,,,,,,,,,,,,,,,,,,,,,,,,,,,,,,,,,,162.0,2.0,,
156,,size_choice,,html-keyboard-response,156,246687,0.0-1.0-206.0,0,0,61002,,1046.0,,,75.0,51.0,51.0,2.0,2000.0,M-M,,M,M,2.0,2.0,ketchup,basketball,ketchup9,basketball9,98.0,58.0,/static/Size_judgement/Stimuli/Size_stims/M/ketchup/ketchup7.jpg,/static/Size_judgement/Stimuli/Size_stims/M/basketball/basketball5.jpg,0.0,basketball,ketchup,M,M,2.0,2.0,basketball9,ketchup9,,163.046,1.046,0.0,
157,,size_choice_confirmation,,html-keyboard-response,157,247143,0.0-1.0-207.0-0.0,0,0,61002,,,,,,51.0,,,,,,,,,,,,,,,,,,,,,,,,,,,,163.5,0.454,,
158,,iti,,html-keyboard-response,158,249145,0.0-1.0-208.0,0,0,61002,,,,,,,,,,,,,,,,,,,,,,,,,,,,,,,,,,165.5,2.0,,
159,,size_choice,,html-keyboard-response,159,250176,0.0-1.0-210.0,0,0,61002,,1028.0,,,75.0,52.0,52.0,2.0,1500.0,S-M,0.0,S,M,1.0,2.0,thread,ketchup,thread4,ketchup7,143.0,96.0,/static/Size_judgement/Stimuli/Size_stims/S/thread/thread5.jpg,/static/Size_judgement/Stimuli/Size_stims/M/ketchup/ketchup4.jpg,0.0,ketchup,thread,M,S,2.0,1.0,ketchup7,thread4,1.0,166.528,1.028,0.0,
160,,size_choice_confirmation,,html-keyboard-response,160,250651,0.0-1.0-211.0-0.0,0,0,61002,,,,,,52.0,,,,,,,,,,,,,,,,,,,,,,,,,,,,167.0,0.472,,
161,,iti,,html-keyboard-response,161,252154,0.0-1.0-212.0,0,0,61002,,,,,,,,,,,,,,,,,,,,,,,,,,,,,,,,,,168.5,1.5,,
162,,size_choice,,html-keyboard-response,162,253103,0.0-1.0-214.0,0,0,61002,,947.0,,,75.0,53.0,53.0,2.0,1500.0,M-XL,0.0,M,XL,2.0,4.0,ketchup,van,ketchup1,van8,90.0,197.0,/static/Size_judgement/Stimuli/Size_stims/M/ketchup/ketchup8.jpg,/static/Size_judgement/Stimuli/Size_stims/XL/van/van10.jpg,0.0,van,ketchup,XL,M,4.0,2.0,van8,ketchup1,1.0,169.447,0.947,0.0,
163,,size_choice_confirmation,,html-keyboard-response,163,253658,0.0-1.0-215.0-0.0,0,0,61002,,,,,,53.0,,,,,,,,,,,,,,,,,,,,,,,,,,,,170.0,0.553,,
164,,iti,,html-keyboard-response,164,255160,0.0-1.0-216.0,0,0,61002,,,,,,,,,,,,,,,,,,,,,,,,,,,,,,,,,,171.5,1.5,,
165,,size_choice,,html-keyboard-response,165,256247,0.0-1.0-218.0,0,0,61002,,1085.0,,,75.0,54.0,54.0,2.0,2000.0,XL-XL,,XL,XL,4.0,4.0,dumptruck,car,dumptruck1,car2,170.0,151.0,/static/Size_judgement/Stimuli/Size_stims/XL/dumptruck/dumptruck9.jpg,/static/Size_judgement/Stimuli/Size_stims/XL/car/car3.jpg,0.0,car,dumptruck,XL,XL,4.0,4.0,car2,dumptruck1,,172.585,1.085,0.0,
166,,size_choice_confirmation,,html-keyboard-response,166,256674,0.0-1.0-219.0-0.0,0,0,61002,,,,,,54.0,,,,,,,,,,,,,,,,,,,,,,,,,,,,173.0,0.415,,
167,,iti,,html-keyboard-response,167,258676,0.0-1.0-220.0,0,0,61002,,,,,,,,,,,,,,,,,,,,,,,,,,,,,,,,,,175.0,2.0,,
168,,size_choice,,html-keyboard-response,168,259567,0.0-1.0-222.0,0,0,61002,,889.0,,,68.0,55.0,55.0,2.0,1000.0,M-L,1.0,L,M,3.0,2.0,mailbox,coffeemaker,mailbox10,coffeemaker10,49.0,69.0,/static/Size_judgement/Stimuli/Size_stims/L/mailbox/mailbox8.jpg,/static/Size_judgement/Stimuli/Size_stims/M/coffeemaker/coffeemaker18.jpg,1.0,mailbox,coffeemaker,L,M,3.0,2.0,mailbox10,coffeemaker10,1.0,175.889,0.889,0.0,
169,,size_choice_confirmation,,html-keyboard-response,169,260181,0.0-1.0-223.0-0.0,0,0,61002,,,,,,55.0,,,,,,,,,,,,,,,,,,,,,,,,,,,,176.5,0.611,,
170,,iti,,html-keyboard-response,170,261183,0.0-1.0-224.0,0,0,61002,,,,,,,,,,,,,,,,,,,,,,,,,,,,,,,,,,177.5,1.0,,
171,,size_choice,,html-keyboard-response,171,261888,0.0-1.0-226.0,0,0,61002,,703.0,,,75.0,56.0,56.0,2.0,1000.0,M-XL,0.0,M,XL,2.0,4.0,hairdryer,van,hairdryer4,van5,73.0,194.0,/static/Size_judgement/Stimuli/Size_stims/M/hairdryer/hairdryer16.jpg,/static/Size_judgement/Stimuli/Size_stims/XL/van/van3.jpg,0.0,van,hairdryer,XL,M,4.0,2.0,van5,hairdryer4,1.0,178.203,0.703,0.0,
172,,size_choice_confirmation,,html-keyboard-response,172,262688,0.0-1.0-227.0-0.0,0,0,61002,,,,,,56.0,,,,,,,,,,,,,,,,,,,,,,,,,,,,179.0,0.797,,
173,,iti,,html-keyboard-response,173,263690,0.0-1.0-228.0,0,0,61002,,,,,,,,,,,,,,,,,,,,,,,,,,,,,,,,,,180.0,1.0,,
174,,size_choice,,html-keyboard-response,174,264463,0.0-1.0-230.0,0,0,61002,,771.0,,,75.0,57.0,57.0,2.0,1000.0,S-L,0.0,S,L,1.0,3.0,die,mailbox,die10,mailbox6,109.0,45.0,/static/Size_judgement/Stimuli/Size_stims/S/die/die6.jpg,/static/Size_judgement/Stimuli/Size_stims/L/mailbox/mailbox6.jpg,0.0,mailbox,die,L,S,3.0,1.0,mailbox6,die10,1.0,180.771,0.771,0.0,
175,,size_choice_confirmation,,html-keyboard-response,175,265196,0.0-1.0-231.0-0.0,0,0,61002,,,,,,57.0,,,,,,,,,,,,,,,,,,,,,,,,,,,,181.5,0.729,,
176,,iti,,html-keyboard-response,176,266198,0.0-1.0-232.0,0,0,61002,,,,,,,,,,,,,,,,,,,,,,,,,,,,,,,,,,182.5,1.0,,
177,,size_choice,,html-keyboard-response,177,266847,0.0-1.0-234.0,0,0,61002,,648.0,,,68.0,58.0,58.0,2.0,3000.0,M-XL,1.0,XL,M,4.0,2.0,crane,ketchup,crane6,ketchup6,165.0,95.0,/static/Size_judgement/Stimuli/Size_stims/XL/crane/crane2.jpg,/static/Size_judgement/Stimuli/Size_stims/M/ketchup/ketchup1.jpg,1.0,crane,ketchup,XL,M,4.0,2.0,crane6,ketchup6,1.0,183.148,0.648,0.0,
178,,size_choice_confirmation,,html-keyboard-response,178,267703,0.0-1.0-235.0-0.0,0,0,61002,,,,,,58.0,,,,,,,,,,,,,,,,,,,,,,,,,,,,184.0,0.852,,
179,,iti,,html-keyboard-response,179,270704,0.0-1.0-236.0,0,0,61002,,,,,,,,,,,,,,,,,,,,,,,,,,,,,,,,,,187.0,3.0,,
180,,size_choice,,html-keyboard-response,180,271415,0.0-1.0-238.0,0,0,61002,,708.0,,,68.0,59.0,59.0,2.0,1500.0,S-XL,1.0,XL,S,4.0,1.0,van,teabag,van4,teabag3,193.0,132.0,/static/Size_judgement/Stimuli/Size_stims/XL/van/van7.jpg,/static/Size_judgement/Stimuli/Size_stims/S/teabag/teabag1.jpg,1.0,van,teabag,XL,S,4.0,1.0,van4,teabag3,1.0,187.708,0.708,0.0,
181,,size_choice_confirmation,,html-keyboard-response,181,272210,0.0-1.0-239.0-0.0,0,0,61002,,,,,,59.0,,,,,,,,,,,,,,,,,,,,,,,,,,,,188.5,0.792,,
182,,iti,,html-keyboard-response,182,273711,0.0-1.0-240.0,0,0,61002,,,,,,,,,,,,,,,,,,,,,,,,,,,,,,,,,,190.0,1.5,,
183,,size_choice,,html-keyboard-response,183,274360,0.0-1.0-242.0,0,0,61002,,647.0,,,75.0,60.0,60.0,2.0,1500.0,S-L,0.0,S,L,1.0,3.0,paperclip,deskchair,paperclip4,deskchair3,113.0,12.0,/static/Size_judgement/Stimuli/Size_stims/S/paperclip/paperclip3.jpg,/static/Size_judgement/Stimuli/Size_stims/L/deskchair/deskchair10.jpg,0.0,deskchair,paperclip,L,S,3.0,1.0,deskchair3,paperclip4,1.0,190.647,0.647,0.0,
184,,size_choice_confirmation,,html-keyboard-response,184,275216,0.0-1.0-243.0-0.0,0,0,61002,,,,,,60.0,,,,,,,,,,,,,,,,,,,,,,,,,,,,191.5,0.853,,
185,,iti,,html-keyboard-response,185,276718,0.0-1.0-244.0,0,0,61002,,,,,,,,,,,,,,,,,,,,,,,,,,,,,,,,,,193.0,1.5,,
186,,size_choice,,html-keyboard-response,186,277423,0.0-1.0-246.0,0,0,61002,,703.0,,,68.0,61.0,61.0,2.0,1000.0,L-L,,L,L,3.0,3.0,dishwasher,garbagecan,dishwasher5,garbagecan1,24.0,30.0,/static/Size_judgement/Stimuli/Size_stims/L/dishwasher/dishwasher4.jpg,/static/Size_judgement/Stimuli/Size_stims/L/garbagecan/garbagecan4.jpg,1.0,dishwasher,garbagecan,L,L,3.0,3.0,dishwasher5,garbagecan1,,193.703,0.703,0.0,
187,,size_choice_confirmation,,html-keyboard-response,187,278222,0.0-1.0-247.0-0.0,0,0,61002,,,,,,61.0,,,,,,,,,,,,,,,,,,,,,,,,,,,,194.5,0.797,,
188,,iti,,html-keyboard-response,188,279225,0.0-1.0-248.0,0,0,61002,,,,,,,,,,,,,,,,,,,,,,,,,,,,,,,,,,195.5,1.0,,
189,,size_choice,,html-keyboard-response,189,280215,0.0-1.0-250.0,0,0,61002,,989.0,,,75.0,62.0,62.0,2.0,1000.0,M-L,0.0,M,L,2.0,3.0,ketchup,deskchair,ketchup3,deskchair7,92.0,16.0,/static/Size_judgement/Stimuli/Size_stims/M/ketchup/ketchup10.jpg,/static/Size_judgement/Stimuli/Size_stims/L/deskchair/deskchair4.jpg,0.0,deskchair,ketchup,L,M,3.0,2.0,deskchair7,ketchup3,1.0,196.489,0.989,0.0,
190,,size_choice_confirmation,,html-keyboard-response,190,280729,0.0-1.0-251.0-0.0,0,0,61002,,,,,,62.0,,,,,,,,,,,,,,,,,,,,,,,,,,,,197.0,0.511,,
191,,iti,,html-keyboard-response,191,281731,0.0-1.0-252.0,0,0,61002,,,,,,,,,,,,,,,,,,,,,,,,,,,,,,,,,,198.0,1.0,,
192,,size_choice,,html-keyboard-response,192,282503,0.0-1.0-254.0,0,0,61002,,769.0,,,75.0,63.0,63.0,2.0,2000.0,S-M,0.0,S,M,1.0,2.0,teabag,coffeemaker,teabag2,coffeemaker3,131.0,62.0,/static/Size_judgement/Stimuli/Size_stims/S/teabag/teabag8.jpg,/static/Size_judgement/Stimuli/Size_stims/M/coffeemaker/coffeemaker13.jpg,0.0,coffeemaker,teabag,M,S,2.0,1.0,coffeemaker3,teabag2,1.0,198.769,0.769,0.0,
193,,size_choice_confirmation,,html-keyboard-response,193,283237,0.0-1.0-255.0-0.0,0,0,61002,,,,,,63.0,,,,,,,,,,,,,,,,,,,,,,,,,,,,199.5,0.731,,
194,,iti,,html-keyboard-response,194,285239,0.0-1.0-256.0,0,0,61002,,,,,,,,,,,,,,,,,,,,,,,,,,,,,,,,,,201.5,2.0,,
195,,size_choice,,html-keyboard-response,195,286288,0.0-1.0-258.0,0,0,61002,,1046.0,,,75.0,64.0,64.0,2.0,1000.0,M-L,0.0,M,L,2.0,3.0,coffeemaker,garbagecan,coffeemaker6,garbagecan10,65.0,39.0,/static/Size_judgement/Stimuli/Size_stims/M/coffeemaker/coffeemaker8.jpg,/static/Size_judgement/Stimuli/Size_stims/L/garbagecan/garbagecan11.jpg,0.0,garbagecan,coffeemaker,L,M,3.0,2.0,garbagecan10,coffeemaker6,1.0,202.546,1.046,0.0,
196,,size_choice_confirmation,,html-keyboard-response,196,286744,0.0-1.0-259.0-0.0,0,0,61002,,,,,,64.0,,,,,,,,,,,,,,,,,,,,,,,,,,,,203.0,0.454,,
197,,iti,,html-keyboard-response,197,287746,0.0-1.0-260.0,0,0,61002,,,,,,,,,,,,,,,,,,,,,,,,,,,,,,,,,,204.0,1.0,,
198,,size_choice,,html-keyboard-response,198,288487,0.0-1.0-262.0,0,0,61002,,739.0,,,68.0,65.0,65.0,2.0,1000.0,S-XL,1.0,XL,S,4.0,1.0,crane,paperclip,crane1,paperclip3,160.0,112.0,/static/Size_judgement/Stimuli/Size_stims/XL/crane/crane7.jpg,/static/Size_judgement/Stimuli/Size_stims/S/paperclip/paperclip1.jpg,1.0,crane,paperclip,XL,S,4.0,1.0,crane1,paperclip3,1.0,204.739,0.739,0.0,
199,,size_choice_confirmation,,html-keyboard-response,199,289251,0.0-1.0-263.0-0.0,0,0,61002,,,,,,65.0,,,,,,,,,,,,,,,,,,,,,,,,,,,,205.5,0.761,,
200,,iti,,html-keyboard-response,200,290254,0.0-1.0-264.0,0,0,61002,,,,,,,,,,,,,,,,,,,,,,,,,,,,,,,,,,206.5,1.0,,
201,,size_choice,,html-keyboard-response,201,291455,0.0-1.0-266.0,0,0,61002,,1199.0,,,68.0,66.0,66.0,2.0,2000.0,M-M,,M,M,2.0,2.0,hairdryer,handsaw,hairdryer9,handsaw4,78.0,83.0,/static/Size_judgement/Stimuli/Size_stims/M/hairdryer/hairdryer5.jpg,/static/Size_judgement/Stimuli/Size_stims/M/handsaw/handsaw3.jpg,1.0,hairdryer,handsaw,M,M,2.0,2.0,hairdryer9,handsaw4,,207.699,1.199,0.0,
202,,size_choice_confirmation,,html-keyboard-response,202,291759,0.0-1.0-267.0-0.0,0,0,61002,,,,,,66.0,,,,,,,,,,,,,,,,,,,,,,,,,,,,208.0,0.301,,
203,,iti,,html-keyboard-response,203,293760,0.0-1.0-268.0,0,0,61002,,,,,,,,,,,,,,,,,,,,,,,,,,,,,,,,,,210.0,2.0,,
204,,size_choice,,html-keyboard-response,204,294791,0.0-1.0-270.0,0,0,61002,,1028.0,,,68.0,67.0,67.0,2.0,1500.0,S-S,,S,S,1.0,1.0,paperclip,screws,paperclip1,screws10,110.0,129.0,/static/Size_judgement/Stimuli/Size_stims/S/paperclip/paperclip9.jpg,/static/Size_judgement/Stimuli/Size_stims/S/screws/screws9.jpg,1.0,paperclip,screws,S,S,1.0,1.0,paperclip1,screws10,,211.028,1.028,0.0,
205,,size_choice_confirmation,,html-keyboard-response,205,295275,0.0-1.0-271.0-0.0,0,0,61002,,,,,,67.0,,,,,,,,,,,,,,,,,,,,,,,,,,,,211.5,0.472,,
206,,iti,,html-keyboard-response,206,296777,0.0-1.0-272.0,0,0,61002,,,,,,,,,,,,,,,,,,,,,,,,,,,,,,,,,,213.0,1.5,,
207,,size_choice,,html-keyboard-response,207,297432,0.0-1.0-274.0,0,0,61002,,652.0,,,68.0,68.0,68.0,2.0,1500.0,M-XL,1.0,XL,M,4.0,2.0,tractor,coffeemaker,tractor2,coffeemaker7,181.0,66.0,/static/Size_judgement/Stimuli/Size_stims/XL/tractor/tractor7.jpg,/static/Size_judgement/Stimuli/Size_stims/M/coffeemaker/coffeemaker9.jpg,1.0,tractor,coffeemaker,XL,M,4.0,2.0,tractor2,coffeemaker7,1.0,213.652,0.652,0.0,
208,,size_choice_confirmation,,html-keyboard-response,208,298282,0.0-1.0-275.0-0.0,0,0,61002,,,,,,68.0,,,,,,,,,,,,,,,,,,,,,,,,,,,,214.5,0.848,,
209,,iti,,html-keyboard-response,209,299786,0.0-1.0-276.0,0,0,61002,,,,,,,,,,,,,,,,,,,,,,,,,,,,,,,,,,216.0,1.5,,
210,,size_choice,,html-keyboard-response,210,300375,0.0-1.0-278.0,0,0,61002,,588.0,,,68.0,69.0,69.0,2.0,2000.0,L-XL,1.0,XL,L,4.0,3.0,crane,deskchair,crane4,deskchair1,163.0,10.0,/static/Size_judgement/Stimuli/Size_stims/XL/crane/crane5.jpg,/static/Size_judgement/Stimuli/Size_stims/L/deskchair/deskchair9.jpg,1.0,crane,deskchair,XL,L,4.0,3.0,crane4,deskchair1,1.0,216.588,0.588,0.0,
211,,size_choice_confirmation,,html-keyboard-response,211,301289,0.0-1.0-279.0-0.0,0,0,61002,,,,,,69.0,,,,,,,,,,,,,,,,,,,,,,,,,,,,217.5,0.912,,
212,,iti,,html-keyboard-response,212,303291,0.0-1.0-280.0,0,0,61002,,,,,,,,,,,,,,,,,,,,,,,,,,,,,,,,,,219.5,2.0,,
213,,size_choice,,html-keyboard-response,213,303991,0.0-1.0-282.0,0,0,61002,,698.0,,,75.0,70.0,70.0,2.0,2000.0,S-L,1.0,L,S,3.0,1.0,garbagecan,die,garbagecan6,die8,35.0,107.0,/static/Size_judgement/Stimuli/Size_stims/L/garbagecan/garbagecan14.jpg,/static/Size_judgement/Stimuli/Size_stims/S/die/die5.jpg,0.0,die,garbagecan,S,L,1.0,3.0,die8,garbagecan6,0.0,220.198,0.698,0.0,
214,,size_choice_confirmation,,html-keyboard-response,214,304796,0.0-1.0-283.0-0.0,0,0,61002,,,,,,70.0,,,,,,,,,,,,,,,,,,,,,,,,,,,,221.0,0.802,,
215,,iti,,html-keyboard-response,215,306797,0.0-1.0-284.0,0,0,61002,,,,,,,,,,,,,,,,,,,,,,,,,,,,,,,,,,223.0,2.0,,
216,,size_choice,,html-keyboard-response,216,307648,0.0-1.0-286.0,0,0,61002,,848.0,,,75.0,71.0,71.0,2.0,1000.0,M-L,0.0,M,L,2.0,3.0,handsaw,cooler,handsaw6,cooler5,85.0,4.0,/static/Size_judgement/Stimuli/Size_stims/M/handsaw/handsaw4.jpg,/static/Size_judgement/Stimuli/Size_stims/L/cooler/cooler10.jpg,0.0,cooler,handsaw,L,M,3.0,2.0,cooler5,handsaw6,1.0,223.848,0.848,0.0,
217,,size_choice_confirmation,,html-keyboard-response,217,308303,0.0-1.0-287.0-0.0,0,0,61002,,,,,,71.0,,,,,,,,,,,,,,,,,,,,,,,,,,,,224.5,0.652,,
218,,iti,,html-keyboard-response,218,309305,0.0-1.0-288.0,0,0,61002,,,,,,,,,,,,,,,,,,,,,,,,,,,,,,,,,,225.5,1.0,,
219,,size_choice,,html-keyboard-response,219,309959,0.0-1.0-290.0,0,0,61002,,652.0,,,75.0,72.0,72.0,2.0,1000.0,S-L,0.0,S,L,1.0,3.0,screws,mailbox,screws4,mailbox1,123.0,40.0,/static/Size_judgement/Stimuli/Size_stims/S/screws/screws6.jpg,/static/Size_judgement/Stimuli/Size_stims/L/mailbox/mailbox3.jpg,0.0,mailbox,screws,L,S,3.0,1.0,mailbox1,screws4,1.0,226.152,0.652,0.0,
220,,size_choice_confirmation,,html-keyboard-response,220,310810,0.0-1.0-291.0-0.0,0,0,61002,,,,,,72.0,,,,,,,,,,,,,,,,,,,,,,,,,,,,227.0,0.848,,
221,,iti,,html-keyboard-response,221,311813,0.0-1.0-292.0,0,0,61002,,,,,,,,,,,,,,,,,,,,,,,,,,,,,,,,,,228.0,1.0,,
222,,size_choice,,html-keyboard-response,222,312391,0.0-1.0-294.0,0,0,61002,,576.0,,,75.0,73.0,73.0,2.0,1000.0,S-XL,0.0,S,XL,1.0,4.0,thread,car,thread5,car1,144.0,150.0,/static/Size_judgement/Stimuli/Size_stims/S/thread/thread1.jpg,/static/Size_judgement/Stimuli/Size_stims/XL/car/car2.jpg,0.0,car,thread,XL,S,4.0,1.0,car1,thread5,1.0,228.576,0.576,0.0,
223,,size_choice_confirmation,,html-keyboard-response,223,313318,0.0-1.0-295.0-0.0,0,0,61002,,,,,,73.0,,,,,,,,,,,,,,,,,,,,,,,,,,,,229.5,0.924,,
224,,iti,,html-keyboard-response,224,314320,0.0-1.0-296.0,0,0,61002,,,,,,,,,,,,,,,,,,,,,,,,,,,,,,,,,,230.5,1.0,,
225,,size_choice,,html-keyboard-response,225,315822,0.0-1.0-298.0,0,0,61002,,,,,,74.0,74.0,2.0,1000.0,XL-XL,,XL,XL,4.0,4.0,van,tractor,van6,tractor9,195.0,188.0,/static/Size_judgement/Stimuli/Size_stims/XL/van/van2.jpg,/static/Size_judgement/Stimuli/Size_stims/XL/tractor/tractor9.jpg,,,,,,,,,,,232.0,1.5,1.0,
226,,iti,,html-keyboard-response,226,316824,0.0-1.0-300.0,0,0,61002,,,,,,,,,,,,,,,,,,,,,,,,,,,,,,,,,,233.0,1.0,,
227,,size_choice,,html-keyboard-response,227,317889,0.0-1.0-302.0,0,0,61002,,1062.0,,,75.0,75.0,75.0,2.0,1500.0,M-XL,0.0,M,XL,2.0,4.0,basketball,van,basketball7,van7,56.0,196.0,/static/Size_judgement/Stimuli/Size_stims/M/basketball/basketball6.jpg,/static/Size_judgement/Stimuli/Size_stims/XL/van/van1.jpg,0.0,van,basketball,XL,M,4.0,2.0,van7,basketball7,1.0,234.062,1.062,0.0,
228,,size_choice_confirmation,,html-keyboard-response,228,318330,0.0-1.0-303.0-0.0,0,0,61002,,,,,,75.0,,,,,,,,,,,,,,,,,,,,,,,,,,,,234.5,0.438,,
229,,iti,,html-keyboard-response,229,319832,0.0-1.0-304.0,0,0,61002,,,,,,,,,,,,,,,,,,,,,,,,,,,,,,,,,,236.0,1.5,,
230,,size_choice,,html-keyboard-response,230,320463,0.0-1.0-306.0,0,0,61002,,630.0,,,68.0,76.0,76.0,2.0,1500.0,S-XL,1.0,XL,S,4.0,1.0,dumptruck,teabag,dumptruck7,teabag5,176.0,134.0,/static/Size_judgement/Stimuli/Size_stims/XL/dumptruck/dumptruck6.jpg,/static/Size_judgement/Stimuli/Size_stims/S/teabag/teabag2.jpg,1.0,dumptruck,teabag,XL,S,4.0,1.0,dumptruck7,teabag5,1.0,236.63,0.63,0.0,
231,,size_choice_confirmation,,html-keyboard-response,231,321336,0.0-1.0-307.0-0.0,0,0,61002,,,,,,76.0,,,,,,,,,,,,,,,,,,,,,,,,,,,,237.5,0.87,,
232,,iti,,html-keyboard-response,232,322838,0.0-1.0-308.0,0,0,61002,,,,,,,,,,,,,,,,,,,,,,,,,,,,,,,,,,239.0,1.5,,
233,,size_choice,,html-keyboard-response,233,323431,0.0-1.0-310.0,0,0,61002,,591.0,,,75.0,77.0,77.0,2.0,1500.0,M-L,0.0,M,L,2.0,3.0,ketchup,deskchair,ketchup8,deskchair6,97.0,15.0,/static/Size_judgement/Stimuli/Size_stims/M/ketchup/ketchup5.jpg,/static/Size_judgement/Stimuli/Size_stims/L/deskchair/deskchair5.jpg,0.0,deskchair,ketchup,L,M,3.0,2.0,deskchair6,ketchup8,1.0,239.591,0.591,0.0,
234,,size_choice_confirmation,,html-keyboard-response,234,324341,0.0-1.0-311.0-0.0,0,0,61002,,,,,,77.0,,,,,,,,,,,,,,,,,,,,,,,,,,,,240.5,0.909,,
235,,iti,,html-keyboard-response,235,325843,0.0-1.0-312.0,0,0,61002,,,,,,,,,,,,,,,,,,,,,,,,,,,,,,,,,,242.0,1.5,,
236,,size_choice,,html-keyboard-response,236,326359,0.0-1.0-314.0,0,0,61002,,513.0,,,68.0,78.0,78.0,2.0,3000.0,S-XL,1.0,XL,S,4.0,1.0,crane,paperclip,crane2,paperclip7,161.0,116.0,/static/Size_judgement/Stimuli/Size_stims/XL/crane/crane6.jpg,/static/Size_judgement/Stimuli/Size_stims/S/paperclip/paperclip7.jpg,1.0,crane,paperclip,XL,S,4.0,1.0,crane2,paperclip7,1.0,242.513,0.513,0.0,
237,,size_choice_confirmation,,html-keyboard-response,237,327348,0.0-1.0-315.0-0.0,0,0,61002,,,,,,78.0,,,,,,,,,,,,,,,,,,,,,,,,,,,,243.5,0.987,,
238,,iti,,html-keyboard-response,238,330349,0.0-1.0-316.0,0,0,61002,,,,,,,,,,,,,,,,,,,,,,,,,,,,,,,,,,246.5,3.0,,
239,,size_choice,,html-keyboard-response,239,331407,0.0-1.0-318.0,0,0,61002,,1056.0,,,68.0,79.0,79.0,2.0,3500.0,M-XL,1.0,XL,M,4.0,2.0,crane,coffeemaker,crane10,coffeemaker2,169.0,61.0,/static/Size_judgement/Stimuli/Size_stims/XL/crane/crane9.jpg,/static/Size_judgement/Stimuli/Size_stims/M/coffeemaker/coffeemaker12.jpg,1.0,crane,coffeemaker,XL,M,4.0,2.0,crane10,coffeemaker2,1.0,247.556,1.056,0.0,
240,,size_choice_confirmation,,html-keyboard-response,240,331853,0.0-1.0-319.0-0.0,0,0,61002,,,,,,79.0,,,,,,,,,,,,,,,,,,,,,,,,,,,,248.0,0.444,,
241,,iti,,html-keyboard-response,241,335356,0.0-1.0-320.0,0,0,61002,,,,,,,,,,,,,,,,,,,,,,,,,,,,,,,,,,251.5,3.5,,
242,,size_choice,,html-keyboard-response,242,335991,0.0-1.0-322.0,0,0,61002,,633.0,,,68.0,80.0,80.0,2.0,3000.0,S-L,1.0,L,S,3.0,1.0,mailbox,screws,mailbox4,screws1,43.0,120.0,/static/Size_judgement/Stimuli/Size_stims/L/mailbox/mailbox5.jpg,/static/Size_judgement/Stimuli/Size_stims/S/screws/screws4.jpg,1.0,mailbox,screws,L,S,3.0,1.0,mailbox4,screws1,1.0,252.133,0.633,0.0,
243,,size_choice_confirmation,,html-keyboard-response,243,336861,0.0-1.0-323.0-0.0,0,0,61002,,,,,,80.0,,,,,,,,,,,,,,,,,,,,,,,,,,,,253.0,0.867,,
244,,iti,,html-keyboard-response,244,339863,0.0-1.0-324.0,0,0,61002,,,,,,,,,,,,,,,,,,,,,,,,,,,,,,,,,,256.0,3.0,,
245,,size_choice,,html-keyboard-response,245,340583,0.0-1.0-326.0,0,0,61002,,718.0,,,68.0,81.0,81.0,2.0,1000.0,S-L,1.0,L,S,3.0,1.0,dishwasher,teabag,dishwasher6,teabag1,25.0,130.0,/static/Size_judgement/Stimuli/Size_stims/L/dishwasher/dishwasher6.jpg,/static/Size_judgement/Stimuli/Size_stims/S/teabag/teabag9.jpg,1.0,dishwasher,teabag,L,S,3.0,1.0,dishwasher6,teabag1,1.0,256.718,0.718,0.0,
246,,size_choice_confirmation,,html-keyboard-response,246,341368,0.0-1.0-327.0-0.0,0,0,61002,,,,,,81.0,,,,,,,,,,,,,,,,,,,,,,,,,,,,257.5,0.782,,
247,,iti,,html-keyboard-response,247,342369,0.0-1.0-328.0,0,0,61002,,,,,,,,,,,,,,,,,,,,,,,,,,,,,,,,,,258.5,1.0,,
248,,size_choice,,html-keyboard-response,248,343191,0.0-1.0-330.0,0,0,61002,,820.0,,,68.0,82.0,82.0,2.0,1000.0,M-L,1.0,L,M,3.0,2.0,garbagecan,basketball,garbagecan5,basketball1,34.0,50.0,/static/Size_judgement/Stimuli/Size_stims/L/garbagecan/garbagecan3.jpg,/static/Size_judgement/Stimuli/Size_stims/M/basketball/basketball9.jpg,1.0,garbagecan,basketball,L,M,3.0,2.0,garbagecan5,basketball1,1.0,259.32,0.82,0.0,
249,,size_choice_confirmation,,html-keyboard-response,249,343874,0.0-1.0-331.0-0.0,0,0,61002,,,,,,82.0,,,,,,,,,,,,,,,,,,,,,,,,,,,,260.0,0.68,,
250,,iti,,html-keyboard-response,250,344876,0.0-1.0-332.0,0,0,61002,,,,,,,,,,,,,,,,,,,,,,,,,,,,,,,,,,261.0,1.0,,
251,,size_choice,,html-keyboard-response,251,345455,0.0-1.0-334.0,0,0,61002,,577.0,,,68.0,83.0,83.0,2.0,3000.0,S-XL,1.0,XL,S,4.0,1.0,crane,screws,crane3,screws7,162.0,126.0,/static/Size_judgement/Stimuli/Size_stims/XL/crane/crane4.jpg,/static/Size_judgement/Stimuli/Size_stims/S/screws/screws1.jpg,1.0,crane,screws,XL,S,4.0,1.0,crane3,screws7,1.0,261.577,0.577,0.0,
252,,size_choice_confirmation,,html-keyboard-response,252,346381,0.0-1.0-335.0-0.0,0,0,61002,,,,,,83.0,,,,,,,,,,,,,,,,,,,,,,,,,,,,262.5,0.923,,
253,,iti,,html-keyboard-response,253,349382,0.0-1.0-336.0,0,0,61002,,,,,,,,,,,,,,,,,,,,,,,,,,,,,,,,,,265.5,3.0,,
254,,size_choice,,html-keyboard-response,254,350031,0.0-1.0-338.0,0,0,61002,,647.0,,,68.0,84.0,84.0,2.0,3500.0,S-L,1.0,L,S,3.0,1.0,deskchair,screws,deskchair9,screws3,18.0,122.0,/static/Size_judgement/Stimuli/Size_stims/L/deskchair/deskchair3.jpg,/static/Size_judgement/Stimuli/Size_stims/S/screws/screws7.jpg,1.0,deskchair,screws,L,S,3.0,1.0,deskchair9,screws3,1.0,266.147,0.647,0.0,
255,,size_choice_confirmation,,html-keyboard-response,255,350889,0.0-1.0-339.0-0.0,0,0,61002,,,,,,84.0,,,,,,,,,,,,,,,,,,,,,,,,,,,,267.0,0.853,,
256,,iti,,html-keyboard-response,256,354390,0.0-1.0-340.0,0,0,61002,,,,,,,,,,,,,,,,,,,,,,,,,,,,,,,,,,270.5,3.5,,
257,,size_choice,,html-keyboard-response,257,355200,0.0-1.0-342.0,0,0,61002,,807.0,,,75.0,85.0,85.0,2.0,1500.0,S-L,0.0,S,L,1.0,3.0,die,mailbox,die7,mailbox2,106.0,41.0,/static/Size_judgement/Stimuli/Size_stims/S/die/die4.jpg,/static/Size_judgement/Stimuli/Size_stims/L/mailbox/mailbox2.jpg,0.0,mailbox,die,L,S,3.0,1.0,mailbox2,die7,1.0,271.307,0.807,0.0,
258,,size_choice_confirmation,,html-keyboard-response,258,355895,0.0-1.0-343.0-0.0,0,0,61002,,,,,,85.0,,,,,,,,,,,,,,,,,,,,,,,,,,,,272.0,0.693,,
259,,iti,,html-keyboard-response,259,357396,0.0-1.0-344.0,0,0,61002,,,,,,,,,,,,,,,,,,,,,,,,,,,,,,,,,,273.5,1.5,,
260,,size_choice,,html-keyboard-response,260,358399,0.0-1.0-346.0,0,0,61002,,1001.0,,,75.0,86.0,86.0,2.0,1000.0,M-XL,0.0,M,XL,2.0,4.0,coffeemaker,tractor,coffeemaker9,tractor3,68.0,182.0,/static/Size_judgement/Stimuli/Size_stims/M/coffeemaker/coffeemaker7.jpg,/static/Size_judgement/Stimuli/Size_stims/XL/tractor/tractor5.jpg,0.0,tractor,coffeemaker,XL,M,4.0,2.0,tractor3,coffeemaker9,1.0,274.501,1.001,0.0,
261,,size_choice_confirmation,,html-keyboard-response,261,358901,0.0-1.0-347.0-0.0,0,0,61002,,,,,,86.0,,,,,,,,,,,,,,,,,,,,,,,,,,,,275.0,0.499,,
262,,iti,,html-keyboard-response,262,359903,0.0-1.0-348.0,0,0,61002,,,,,,,,,,,,,,,,,,,,,,,,,,,,,,,,,,276.0,1.0,,
263,,size_choice,,html-keyboard-response,263,360727,0.0-1.0-350.0,0,0,61002,,821.0,,,75.0,87.0,87.0,2.0,1000.0,XL-XL,,XL,XL,4.0,4.0,van,tractor,van9,tractor1,198.0,180.0,/static/Size_judgement/Stimuli/Size_stims/XL/van/van9.jpg,/static/Size_judgement/Stimuli/Size_stims/XL/tractor/tractor6.jpg,0.0,tractor,van,XL,XL,4.0,4.0,tractor1,van9,,276.821,0.821,0.0,
264,,size_choice_confirmation,,html-keyboard-response,264,361408,0.0-1.0-351.0-0.0,0,0,61002,,,,,,87.0,,,,,,,,,,,,,,,,,,,,,,,,,,,,277.5,0.679,,
265,,iti,,html-keyboard-response,265,362411,0.0-1.0-352.0,0,0,61002,,,,,,,,,,,,,,,,,,,,,,,,,,,,,,,,,,278.5,1.0,,
266,,size_choice,,html-keyboard-response,266,363271,0.0-1.0-354.0,0,0,61002,,859.0,,,68.0,88.0,88.0,2.0,1500.0,S-XL,1.0,XL,S,4.0,1.0,crane,die,crane7,die4,166.0,103.0,/static/Size_judgement/Stimuli/Size_stims/XL/crane/crane3.jpg,/static/Size_judgement/Stimuli/Size_stims/S/die/die2.jpg,1.0,crane,die,XL,S,4.0,1.0,crane7,die4,1.0,279.359,0.859,0.0,
267,,size_choice_confirmation,,html-keyboard-response,267,363914,0.0-1.0-355.0-0.0,0,0,61002,,,,,,88.0,,,,,,,,,,,,,,,,,,,,,,,,,,,,280.0,0.641,,
268,,iti,,html-keyboard-response,268,365416,0.0-1.0-356.0,0,0,61002,,,,,,,,,,,,,,,,,,,,,,,,,,,,,,,,,,281.5,1.5,,
269,,size_choice,,html-keyboard-response,269,366479,0.0-1.0-358.0,0,0,61002,,1062.0,,,75.0,89.0,89.0,2.0,1000.0,M-L,0.0,M,L,2.0,3.0,coffeemaker,mailbox,coffeemaker8,mailbox8,67.0,47.0,/static/Size_judgement/Stimuli/Size_stims/M/coffeemaker/coffeemaker5.jpg,/static/Size_judgement/Stimuli/Size_stims/L/mailbox/mailbox10.jpg,0.0,mailbox,coffeemaker,L,M,3.0,2.0,mailbox8,coffeemaker8,1.0,282.562,1.062,0.0,
270,,size_choice_confirmation,,html-keyboard-response,270,366920,0.0-1.0-359.0-0.0,0,0,61002,,,,,,89.0,,,,,,,,,,,,,,,,,,,,,,,,,,,,283.0,0.438,,
271,,iti,,html-keyboard-response,271,367922,0.0-1.0-360.0,0,0,61002,,,,,,,,,,,,,,,,,,,,,,,,,,,,,,,,,,284.0,1.0,,0.96
272,,size_final_tally,,html-keyboard-response,272,372287,0.0-2.0,0,0,61002,,4363.0,,,68.0,,,,,,,,,,,,,,,,,,,,,,,,,,,,,,,,
