,success,ttype,start_time,trial_type,trial_index,time_elapsed,internal_node_id,warning,missed_checkup,PID,view_history,rt,responses,repeat_instructions,key_press,index,trial_num,block,iti,pair_type,high_size_on_left,left_size_group,right_size_group,left_size_num,right_size_num,left_category,right_category,left_exemplar,right_exemplar,left_index,right_index,left_img_path,right_img_path,left_chosen,chosen_category,unchosen_category,chosen_size_group,unchosen_size_group,chosen_size_num,unchosen_size_num,chosen_exemplar,unchosen_exemplar,accuracy,onset,duration,no_response,size_final_tally
0,True,full_screen,d06032022hr1628,fullscreen,0,48953,0.0-0.0,0,0,58537,,,,,,,,,,,,,,,,,,,,,,,,,,,,,,,,,,,,,
1,,size_instructions,,instructions,1,60373,0.0-1.0-0.0-0.0,0,0,58537,"[{""page_index"":0,""viewing_time"":5384},{""page_index"":1,""viewing_time"":1214},{""page_index"":2,""viewing_time"":978},{""page_index"":3,""viewing_time"":2154},{""page_index"":4,""viewing_time"":934},{""page_index"":5,""viewing_time"":751}]",11417.0,,,,,,,,,,,,,,,,,,,,,,,,,,,,,,,,,,,
2,,size_comprehension_check,,survey-multi-choice,2,67222,0.0-1.0-0.0-1.0,0,0,58537,,6839.0,"{""Q0"":""True"",""Q1"":""Size on the screen"",""Q2"":""True"",""Q3"":""D for left and K for right""}",1.0,,,,,,,,,,,,,,,,,,,,,,,,,,,,,,,,,
3,,missed_instruction_checkup,,html-keyboard-response,3,68789,0.0-1.0-0.0-2.0-0.0,0,1,58537,,1562.0,,,68.0,,,,,,,,,,,,,,,,,,,,,,,,,,,,,,,,
4,,size_instructions,,instructions,4,76219,0.0-1.0-0.1-0.1,0,0,58537,"[{""page_index"":0,""viewing_time"":2701},{""page_index"":1,""viewing_time"":736},{""page_index"":2,""viewing_time"":472},{""page_index"":3,""viewing_time"":2009},{""page_index"":4,""viewing_time"":792},{""page_index"":5,""viewing_time"":718}]",7429.0,,,,,,,,,,,,,,,,,,,,,,,,,,,,,,,,,,,
5,,size_comprehension_check,,survey-multi-choice,5,85293,0.0-1.0-0.1-1.1,0,0,58537,,9068.0,"{""Q0"":""True"",""Q1"":""Size on the screen"",""Q2"":""False"",""Q3"":""D for left and K for right""}",1.0,,,,,,,,,,,,,,,,,,,,,,,,,,,,,,,,,
6,,missed_instruction_checkup,,html-keyboard-response,6,86674,0.0-1.0-0.1-2.1-0.1,0,1,58537,,1376.0,,,68.0,,,,,,,,,,,,,,,,,,,,,,,,,,,,,,,,
7,,size_instructions,,instructions,7,103371,0.0-1.0-0.2-0.2,0,0,58537,"[{""page_index"":0,""viewing_time"":3529},{""page_index"":1,""viewing_time"":5920},{""page_index"":2,""viewing_time"":830},{""page_index"":3,""viewing_time"":1072},{""page_index"":4,""viewing_time"":953},{""page_index"":3,""viewing_time"":209},{""page_index"":2,""viewing_time"":2215},{""page_index"":3,""viewing_time"":584},{""page_index"":4,""viewing_time"":665},{""page_index"":5,""viewing_time"":719}]",16697.0,,,,,,,,,,,,,,,,,,,,,,,,,,,,,,,,,,,
8,,size_comprehension_check,,survey-multi-choice,8,116405,0.0-1.0-0.2-1.2,0,0,58537,,13029.0,"{""Q0"":""False"",""Q1"":""Size on the screen"",""Q2"":""True"",""Q3"":""D for left and K for right""}",1.0,,,,,,,,,,,,,,,,,,,,,,,,,,,,,,,,,
9,,missed_instruction_checkup,,html-keyboard-response,9,117792,0.0-1.0-0.2-2.2-0.2,0,1,58537,,1385.0,,,68.0,,,,,,,,,,,,,,,,,,,,,,,,,,,,,,,,
10,,size_instructions,,instructions,10,126621,0.0-1.0-0.3-0.3,0,0,58537,"[{""page_index"":0,""viewing_time"":2916},{""page_index"":1,""viewing_time"":3760},{""page_index"":2,""viewing_time"":527},{""page_index"":3,""viewing_time"":538},{""page_index"":4,""viewing_time"":502},{""page_index"":5,""viewing_time"":585}]",8829.0,,,,,,,,,,,,,,,,,,,,,,,,,,,,,,,,,,,
11,,size_comprehension_check,,survey-multi-choice,11,132742,0.0-1.0-0.3-1.3,0,0,58537,,6115.0,"{""Q0"":""True"",""Q1"":""Size in the real world"",""Q2"":""True"",""Q3"":""D for left and K for right""}",0.0,,,,,,,,,,,,,,,,,,,,,,,,,,,,,,,,,
12,,,,html-keyboard-response,12,133976,0.0-1.0-1.0,0,0,58537,,1231.0,,,68.0,,,,,,,,,,,,,,,,,,,,,,,,,,,,,,,,
13,,size_choice,,html-keyboard-response,13,135486,0.0-1.0-2.0,0,0,58537,,1501.0,,,68.0,0.0,0.0,1.0,1500.0,S-M,1.0,M,S,2.0,1.0,hairdryer,paperclip,hairdryer8,paperclip1,77.0,110.0,/static/Size_judgement/Stimuli/Size_stims/M/hairdryer/hairdryer1.jpg,/static/Size_judgement/Stimuli/Size_stims/S/paperclip/paperclip9.jpg,1.0,hairdryer,paperclip,M,S,2.0,1.0,hairdryer8,paperclip1,1.0,1.501,1.501,0.0,
14,,size_choice_confirmation,,html-keyboard-response,14,135495,0.0-1.0-3.0-0.0,0,0,58537,,,,,,0.0,,,,,,,,,,,,,,,,,,,,,,,,,,,,1.5,-0.001,,
15,,iti,,html-keyboard-response,15,136998,0.0-1.0-4.0,0,0,58537,,,,,,,,,,,,,,,,,,,,,,,,,,,,,,,,,,3.0,1.5,,
16,,size_choice,,html-keyboard-response,16,138303,0.0-1.0-6.0,0,0,58537,,1302.0,,,68.0,1.0,1.0,1.0,1000.0,S-XL,0.0,S,XL,1.0,4.0,die,van,die5,van5,104.0,194.0,/static/Size_judgement/Stimuli/Size_stims/S/die/die3.jpg,/static/Size_judgement/Stimuli/Size_stims/XL/van/van3.jpg,1.0,die,van,S,XL,1.0,4.0,die5,van5,0.0,4.302,1.302,0.0,
17,,size_choice_confirmation,,html-keyboard-response,17,138506,0.0-1.0-7.0-0.0,0,0,58537,,,,,,1.0,,,,,,,,,,,,,,,,,,,,,,,,,,,,4.5,0.198,,
18,,iti,,html-keyboard-response,18,139509,0.0-1.0-8.0,0,0,58537,,,,,,,,,,,,,,,,,,,,,,,,,,,,,,,,,,5.5,1.0,,
19,,size_choice,,html-keyboard-response,19,141013,0.0-1.0-10.0,0,0,58537,,,,,,2.0,2.0,1.0,1000.0,S-L,1.0,L,S,3.0,1.0,dishwasher,thread,dishwasher8,thread1,27.0,140.0,/static/Size_judgement/Stimuli/Size_stims/L/dishwasher/dishwasher3.jpg,/static/Size_judgement/Stimuli/Size_stims/S/thread/thread7.jpg,,,,,,,,,,,7.0,1.5,1.0,
20,,iti,,html-keyboard-response,20,142017,0.0-1.0-12.0,0,0,58537,,,,,,,,,,,,,,,,,,,,,,,,,,,,,,,,,,8.0,1.0,,
21,,size_choice,,html-keyboard-response,21,143523,0.0-1.0-14.0,0,0,58537,,,,,,3.0,3.0,1.0,1500.0,M-XL,1.0,XL,M,4.0,2.0,van,basketball,van4,basketball9,193.0,58.0,/static/Size_judgement/Stimuli/Size_stims/XL/van/van7.jpg,/static/Size_judgement/Stimuli/Size_stims/M/basketball/basketball5.jpg,,,,,,,,,,,9.5,1.5,1.0,
22,,iti,,html-keyboard-response,22,145026,0.0-1.0-16.0,0,0,58537,,,,,,,,,,,,,,,,,,,,,,,,,,,,,,,,,,11.0,1.5,,
23,,size_choice,,html-keyboard-response,23,146529,0.0-1.0-18.0,0,0,58537,,,,,,4.0,4.0,1.0,1500.0,M-XL,1.0,XL,M,4.0,2.0,crane,handsaw,crane4,handsaw4,163.0,83.0,/static/Size_judgement/Stimuli/Size_stims/XL/crane/crane5.jpg,/static/Size_judgement/Stimuli/Size_stims/M/handsaw/handsaw3.jpg,,,,,,,,,,,12.5,1.5,1.0,
24,,iti,,html-keyboard-response,24,148031,0.0-1.0-20.0,0,0,58537,,,,,,,,,,,,,,,,,,,,,,,,,,,,,,,,,,14.0,1.5,,
25,,size_choice,,html-keyboard-response,25,149535,0.0-1.0-22.0,0,0,58537,,,,,,5.0,5.0,1.0,1000.0,M-L,1.0,L,M,3.0,2.0,deskchair,handsaw,deskchair9,handsaw9,18.0,88.0,/static/Size_judgement/Stimuli/Size_stims/L/deskchair/deskchair3.jpg,/static/Size_judgement/Stimuli/Size_stims/M/handsaw/handsaw6.jpg,,,,,,,,,,,15.5,1.5,1.0,
26,,iti,,html-keyboard-response,26,150538,0.0-1.0-24.0,0,0,58537,,,,,,,,,,,,,,,,,,,,,,,,,,,,,,,,,,16.5,1.0,,
27,,size_choice,,html-keyboard-response,27,152042,0.0-1.0-26.0,0,0,58537,,,,,,6.0,6.0,1.0,1500.0,M-L,0.0,M,L,2.0,3.0,coffeemaker,mailbox,coffeemaker7,mailbox7,66.0,46.0,/static/Size_judgement/Stimuli/Size_stims/M/coffeemaker/coffeemaker9.jpg,/static/Size_judgement/Stimuli/Size_stims/L/mailbox/mailbox7.jpg,,,,,,,,,,,18.0,1.5,1.0,
28,,iti,,html-keyboard-response,28,153545,0.0-1.0-28.0,0,0,58537,,,,,,,,,,,,,,,,,,,,,,,,,,,,,,,,,,19.5,1.5,,
29,,size_choice,,html-keyboard-response,29,155048,0.0-1.0-30.0,0,0,58537,,,,,,7.0,7.0,1.0,1500.0,M-L,1.0,L,M,3.0,2.0,deskchair,ketchup,deskchair10,ketchup3,19.0,92.0,/static/Size_judgement/Stimuli/Size_stims/L/deskchair/deskchair2.jpg,/static/Size_judgement/Stimuli/Size_stims/M/ketchup/ketchup10.jpg,,,,,,,,,,,21.0,1.5,1.0,
30,,iti,,html-keyboard-response,30,156551,0.0-1.0-32.0,0,0,58537,,,,,,,,,,,,,,,,,,,,,,,,,,,,,,,,,,22.5,1.5,,
31,,size_choice,,html-keyboard-response,31,158055,0.0-1.0-34.0,0,0,58537,,,,,,8.0,8.0,1.0,2000.0,S-L,1.0,L,S,3.0,1.0,cooler,paperclip,cooler8,paperclip3,7.0,112.0,/static/Size_judgement/Stimuli/Size_stims/L/cooler/cooler5.jpg,/static/Size_judgement/Stimuli/Size_stims/S/paperclip/paperclip1.jpg,,,,,,,,,,,24.0,1.5,1.0,
32,,iti,,html-keyboard-response,32,160059,0.0-1.0-36.0,0,0,58537,,,,,,,,,,,,,,,,,,,,,,,,,,,,,,,,,,26.0,2.0,,
33,,size_choice,,html-keyboard-response,33,161563,0.0-1.0-38.0,0,0,58537,,,,,,9.0,9.0,1.0,1500.0,M-L,0.0,M,L,2.0,3.0,basketball,garbagecan,basketball10,garbagecan5,59.0,34.0,/static/Size_judgement/Stimuli/Size_stims/M/basketball/basketball4.jpg,/static/Size_judgement/Stimuli/Size_stims/L/garbagecan/garbagecan3.jpg,,,,,,,,,,,27.5,1.5,1.0,
34,,iti,,html-keyboard-response,34,163067,0.0-1.0-40.0,0,0,58537,,,,,,,,,,,,,,,,,,,,,,,,,,,,,,,,,,29.0,1.5,,
35,,size_choice,,html-keyboard-response,35,164571,0.0-1.0-42.0,0,0,58537,,,,,,10.0,10.0,1.0,2000.0,S-L,1.0,L,S,3.0,1.0,dishwasher,teabag,dishwasher1,teabag5,20.0,134.0,/static/Size_judgement/Stimuli/Size_stims/L/dishwasher/dishwasher10.jpg,/static/Size_judgement/Stimuli/Size_stims/S/teabag/teabag2.jpg,,,,,,,,,,,30.5,1.5,1.0,
36,,iti,,html-keyboard-response,36,166575,0.0-1.0-44.0,0,0,58537,,,,,,,,,,,,,,,,,,,,,,,,,,,,,,,,,,32.5,2.0,,
37,,size_choice,,html-keyboard-response,37,168079,0.0-1.0-46.0,0,0,58537,,,,,,11.0,11.0,1.0,1000.0,S-S,,S,S,1.0,1.0,thread,die,thread10,die4,149.0,103.0,/static/Size_judgement/Stimuli/Size_stims/S/thread/thread9.jpg,/static/Size_judgement/Stimuli/Size_stims/S/die/die2.jpg,,,,,,,,,,,34.0,1.5,1.0,
38,,iti,,html-keyboard-response,38,169084,0.0-1.0-48.0,0,0,58537,,,,,,,,,,,,,,,,,,,,,,,,,,,,,,,,,,35.0,1.0,,
39,,size_choice,,html-keyboard-response,39,170588,0.0-1.0-50.0,0,0,58537,,,,,,12.0,12.0,1.0,1000.0,S-XL,0.0,S,XL,1.0,4.0,teabag,crane,teabag6,crane6,135.0,165.0,/static/Size_judgement/Stimuli/Size_stims/S/teabag/teabag6.jpg,/static/Size_judgement/Stimuli/Size_stims/XL/crane/crane2.jpg,,,,,,,,,,,36.5,1.5,1.0,
40,,iti,,html-keyboard-response,40,171591,0.0-1.0-52.0,0,0,58537,,,,,,,,,,,,,,,,,,,,,,,,,,,,,,,,,,37.5,1.0,,
41,,size_choice,,html-keyboard-response,41,173096,0.0-1.0-54.0,0,0,58537,,,,,,13.0,13.0,1.0,1500.0,S-M,0.0,S,M,1.0,2.0,paperclip,ketchup,paperclip2,ketchup7,111.0,96.0,/static/Size_judgement/Stimuli/Size_stims/S/paperclip/paperclip8.jpg,/static/Size_judgement/Stimuli/Size_stims/M/ketchup/ketchup4.jpg,,,,,,,,,,,39.0,1.5,1.0,
42,,iti,,html-keyboard-response,42,174599,0.0-1.0-56.0,0,0,58537,,,,,,,,,,,,,,,,,,,,,,,,,,,,,,,,,,40.5,1.5,,
43,,size_choice,,html-keyboard-response,43,176105,0.0-1.0-58.0,0,0,58537,,,,,,14.0,14.0,1.0,2000.0,S-L,0.0,S,L,1.0,3.0,thread,garbagecan,thread6,garbagecan8,145.0,37.0,/static/Size_judgement/Stimuli/Size_stims/S/thread/thread2.jpg,/static/Size_judgement/Stimuli/Size_stims/L/garbagecan/garbagecan13.jpg,,,,,,,,,,,42.0,1.5,1.0,
44,,iti,,html-keyboard-response,44,178107,0.0-1.0-60.0,0,0,58537,,,,,,,,,,,,,,,,,,,,,,,,,,,,,,,,,,44.0,2.0,,
45,,size_choice,,html-keyboard-response,45,179611,0.0-1.0-62.0,0,0,58537,,,,,,15.0,15.0,1.0,1000.0,S-L,0.0,S,L,1.0,3.0,screws,dishwasher,screws4,dishwasher2,123.0,21.0,/static/Size_judgement/Stimuli/Size_stims/S/screws/screws6.jpg,/static/Size_judgement/Stimuli/Size_stims/L/dishwasher/dishwasher9.jpg,,,,,,,,,,,45.5,1.5,1.0,
46,,iti,,html-keyboard-response,46,180612,0.0-1.0-64.0,0,0,58537,,,,,,,,,,,,,,,,,,,,,,,,,,,,,,,,,,46.5,1.0,,
47,,size_choice,,html-keyboard-response,47,182116,0.0-1.0-66.0,0,0,58537,,,,,,16.0,16.0,1.0,3000.0,XL-XL,,XL,XL,4.0,4.0,dumptruck,crane,dumptruck9,crane9,178.0,168.0,/static/Size_judgement/Stimuli/Size_stims/XL/dumptruck/dumptruck5.jpg,/static/Size_judgement/Stimuli/Size_stims/XL/crane/crane8.jpg,,,,,,,,,,,48.0,1.5,1.0,
48,,iti,,html-keyboard-response,48,185118,0.0-1.0-68.0,0,0,58537,,,,,,,,,,,,,,,,,,,,,,,,,,,,,,,,,,51.0,3.0,,
49,,size_choice,,html-keyboard-response,49,186621,0.0-1.0-70.0,0,0,58537,,,,,,17.0,17.0,1.0,1000.0,L-L,,L,L,3.0,3.0,deskchair,mailbox,deskchair2,mailbox5,11.0,44.0,/static/Size_judgement/Stimuli/Size_stims/L/deskchair/deskchair8.jpg,/static/Size_judgement/Stimuli/Size_stims/L/mailbox/mailbox4.jpg,,,,,,,,,,,52.5,1.5,1.0,
50,,iti,,html-keyboard-response,50,187624,0.0-1.0-72.0,0,0,58537,,,,,,,,,,,,,,,,,,,,,,,,,,,,,,,,,,53.5,1.0,,
51,,size_choice,,html-keyboard-response,51,189126,0.0-1.0-74.0,0,0,58537,,,,,,18.0,18.0,1.0,3000.0,M-XL,1.0,XL,M,4.0,2.0,van,coffeemaker,van2,coffeemaker8,191.0,67.0,/static/Size_judgement/Stimuli/Size_stims/XL/van/van4.jpg,/static/Size_judgement/Stimuli/Size_stims/M/coffeemaker/coffeemaker5.jpg,,,,,,,,,,,55.0,1.5,1.0,
52,,iti,,html-keyboard-response,52,192130,0.0-1.0-76.0,0,0,58537,,,,,,,,,,,,,,,,,,,,,,,,,,,,,,,,,,58.0,3.0,,
53,,size_choice,,html-keyboard-response,53,193634,0.0-1.0-78.0,0,0,58537,,,,,,19.0,19.0,1.0,1000.0,M-XL,1.0,XL,M,4.0,2.0,tractor,handsaw,tractor6,handsaw1,185.0,80.0,/static/Size_judgement/Stimuli/Size_stims/XL/tractor/tractor3.jpg,/static/Size_judgement/Stimuli/Size_stims/M/handsaw/handsaw8.jpg,,,,,,,,,,,59.5,1.5,1.0,
54,,iti,,html-keyboard-response,54,194637,0.0-1.0-80.0,0,0,58537,,,,,,,,,,,,,,,,,,,,,,,,,,,,,,,,,,60.5,1.0,,
55,,size_choice,,html-keyboard-response,55,196143,0.0-1.0-82.0,0,0,58537,,,,,,20.0,20.0,1.0,1000.0,M-XL,0.0,M,XL,2.0,4.0,hairdryer,van,hairdryer9,van1,78.0,190.0,/static/Size_judgement/Stimuli/Size_stims/M/hairdryer/hairdryer5.jpg,/static/Size_judgement/Stimuli/Size_stims/XL/van/van5.jpg,,,,,,,,,,,62.0,1.5,1.0,
56,,iti,,html-keyboard-response,56,197146,0.0-1.0-84.0,0,0,58537,,,,,,,,,,,,,,,,,,,,,,,,,,,,,,,,,,63.0,1.0,,
57,,size_choice,,html-keyboard-response,57,198649,0.0-1.0-86.0,0,0,58537,,,,,,21.0,21.0,1.0,1000.0,S-M,0.0,S,M,1.0,2.0,die,hairdryer,die6,hairdryer4,105.0,73.0,/static/Size_judgement/Stimuli/Size_stims/S/die/die1.jpg,/static/Size_judgement/Stimuli/Size_stims/M/hairdryer/hairdryer16.jpg,,,,,,,,,,,64.5,1.5,1.0,
58,,iti,,html-keyboard-response,58,199651,0.0-1.0-88.0,0,0,58537,,,,,,,,,,,,,,,,,,,,,,,,,,,,,,,,,,65.5,1.0,,
59,,size_choice,,html-keyboard-response,59,201155,0.0-1.0-90.0,0,0,58537,,,,,,22.0,22.0,1.0,1000.0,S-L,1.0,L,S,3.0,1.0,mailbox,teabag,mailbox3,teabag8,42.0,137.0,/static/Size_judgement/Stimuli/Size_stims/L/mailbox/mailbox1.jpg,/static/Size_judgement/Stimuli/Size_stims/S/teabag/teabag7.jpg,,,,,,,,,,,67.0,1.5,1.0,
60,,iti,,html-keyboard-response,60,202158,0.0-1.0-92.0,0,0,58537,,,,,,,,,,,,,,,,,,,,,,,,,,,,,,,,,,68.0,1.0,,
61,,size_choice,,html-keyboard-response,61,203662,0.0-1.0-94.0,0,0,58537,,,,,,23.0,23.0,1.0,1500.0,M-XL,1.0,XL,M,4.0,2.0,tractor,basketball,tractor4,basketball4,183.0,53.0,/static/Size_judgement/Stimuli/Size_stims/XL/tractor/tractor4.jpg,/static/Size_judgement/Stimuli/Size_stims/M/basketball/basketball1.jpg,,,,,,,,,,,69.5,1.5,1.0,
62,,iti,,html-keyboard-response,62,205165,0.0-1.0-96.0,0,0,58537,,,,,,,,,,,,,,,,,,,,,,,,,,,,,,,,,,71.0,1.5,,
63,,size_choice,,html-keyboard-response,63,206668,0.0-1.0-98.0,0,0,58537,,,,,,24.0,24.0,1.0,2000.0,S-XL,1.0,XL,S,4.0,1.0,dumptruck,die,dumptruck6,die8,175.0,107.0,/static/Size_judgement/Stimuli/Size_stims/XL/dumptruck/dumptruck2.jpg,/static/Size_judgement/Stimuli/Size_stims/S/die/die5.jpg,,,,,,,,,,,72.5,1.5,1.0,
64,,iti,,html-keyboard-response,64,208670,0.0-1.0-100.0,0,0,58537,,,,,,,,,,,,,,,,,,,,,,,,,,,,,,,,,,74.5,2.0,,
65,,size_choice,,html-keyboard-response,65,210173,0.0-1.0-102.0,0,0,58537,,,,,,25.0,25.0,1.0,1000.0,S-XL,1.0,XL,S,4.0,1.0,van,die,van10,die10,199.0,109.0,/static/Size_judgement/Stimuli/Size_stims/XL/van/van8.jpg,/static/Size_judgement/Stimuli/Size_stims/S/die/die6.jpg,,,,,,,,,,,76.0,1.5,1.0,
66,,iti,,html-keyboard-response,66,211176,0.0-1.0-104.0,0,0,58537,,,,,,,,,,,,,,,,,,,,,,,,,,,,,,,,,,77.0,1.0,,
67,,size_choice,,html-keyboard-response,67,212679,0.0-1.0-106.0,0,0,58537,,,,,,26.0,26.0,1.0,2000.0,M-M,,M,M,2.0,2.0,coffeemaker,hairdryer,coffeemaker5,hairdryer1,64.0,70.0,/static/Size_judgement/Stimuli/Size_stims/M/coffeemaker/coffeemaker10.jpg,/static/Size_judgement/Stimuli/Size_stims/M/hairdryer/hairdryer11.jpg,,,,,,,,,,,78.5,1.5,1.0,
68,,iti,,html-keyboard-response,68,214681,0.0-1.0-108.0,0,0,58537,,,,,,,,,,,,,,,,,,,,,,,,,,,,,,,,,,80.5,2.0,,
69,,size_choice,,html-keyboard-response,69,216184,0.0-1.0-110.0,0,0,58537,,,,,,27.0,27.0,1.0,3000.0,XL-XL,,XL,XL,4.0,4.0,car,dumptruck,car7,dumptruck2,156.0,171.0,/static/Size_judgement/Stimuli/Size_stims/XL/car/car13.jpg,/static/Size_judgement/Stimuli/Size_stims/XL/dumptruck/dumptruck8.jpg,,,,,,,,,,,82.0,1.5,1.0,
70,,iti,,html-keyboard-response,70,219186,0.0-1.0-112.0,0,0,58537,,,,,,,,,,,,,,,,,,,,,,,,,,,,,,,,,,85.0,3.0,,
71,,size_choice,,html-keyboard-response,71,220689,0.0-1.0-114.0,0,0,58537,,,,,,28.0,28.0,1.0,1000.0,M-L,1.0,L,M,3.0,2.0,mailbox,ketchup,mailbox2,ketchup6,41.0,95.0,/static/Size_judgement/Stimuli/Size_stims/L/mailbox/mailbox2.jpg,/static/Size_judgement/Stimuli/Size_stims/M/ketchup/ketchup1.jpg,,,,,,,,,,,86.5,1.5,1.0,
72,,iti,,html-keyboard-response,72,221692,0.0-1.0-116.0,0,0,58537,,,,,,,,,,,,,,,,,,,,,,,,,,,,,,,,,,87.5,1.0,,
73,,size_choice,,html-keyboard-response,73,223195,0.0-1.0-118.0,0,0,58537,,,,,,29.0,29.0,1.0,3500.0,L-XL,1.0,XL,L,4.0,3.0,van,cooler,van7,cooler5,196.0,4.0,/static/Size_judgement/Stimuli/Size_stims/XL/van/van1.jpg,/static/Size_judgement/Stimuli/Size_stims/L/cooler/cooler10.jpg,,,,,,,,,,,89.0,1.5,1.0,
74,,iti,,html-keyboard-response,74,226698,0.0-1.0-120.0,0,0,58537,,,,,,,,,,,,,,,,,,,,,,,,,,,,,,,,,,92.5,3.5,,
75,,size_choice,,html-keyboard-response,75,228201,0.0-1.0-122.0,0,0,58537,,,,,,30.0,30.0,1.0,1000.0,S-S,,S,S,1.0,1.0,paperclip,teabag,paperclip9,teabag2,118.0,131.0,/static/Size_judgement/Stimuli/Size_stims/S/paperclip/paperclip4.jpg,/static/Size_judgement/Stimuli/Size_stims/S/teabag/teabag8.jpg,,,,,,,,,,,94.0,1.5,1.0,
76,,iti,,html-keyboard-response,76,229208,0.0-1.0-124.0,0,0,58537,,,,,,,,,,,,,,,,,,,,,,,,,,,,,,,,,,95.0,1.0,,
77,,size_choice,,html-keyboard-response,77,230711,0.0-1.0-126.0,0,0,58537,,,,,,31.0,31.0,1.0,1500.0,S-S,,S,S,1.0,1.0,thread,screws,thread4,screws8,143.0,127.0,/static/Size_judgement/Stimuli/Size_stims/S/thread/thread5.jpg,/static/Size_judgement/Stimuli/Size_stims/S/screws/screws10.jpg,,,,,,,,,,,96.5,1.5,1.0,
78,,iti,,html-keyboard-response,78,232216,0.0-1.0-128.0,0,0,58537,,,,,,,,,,,,,,,,,,,,,,,,,,,,,,,,,,98.0,1.5,,
79,,size_choice,,html-keyboard-response,79,233718,0.0-1.0-130.0,0,0,58537,,,,,,32.0,32.0,1.0,2000.0,S-XL,0.0,S,XL,1.0,4.0,die,crane,die7,crane8,106.0,167.0,/static/Size_judgement/Stimuli/Size_stims/S/die/die4.jpg,/static/Size_judgement/Stimuli/Size_stims/XL/crane/crane10.jpg,,,,,,,,,,,99.5,1.5,1.0,
80,,iti,,html-keyboard-response,80,235720,0.0-1.0-132.0,0,0,58537,,,,,,,,,,,,,,,,,,,,,,,,,,,,,,,,,,101.5,2.0,,
81,,size_choice,,html-keyboard-response,81,237223,0.0-1.0-134.0,0,0,58537,,,,,,33.0,33.0,1.0,1000.0,M-M,,M,M,2.0,2.0,hairdryer,handsaw,hairdryer3,handsaw3,72.0,82.0,/static/Size_judgement/Stimuli/Size_stims/M/hairdryer/hairdryer17.jpg,/static/Size_judgement/Stimuli/Size_stims/M/handsaw/handsaw2.jpg,,,,,,,,,,,103.0,1.5,1.0,
82,,iti,,html-keyboard-response,82,238225,0.0-1.0-136.0,0,0,58537,,,,,,,,,,,,,,,,,,,,,,,,,,,,,,,,,,104.0,1.0,,
83,,size_choice,,html-keyboard-response,83,239729,0.0-1.0-138.0,0,0,58537,,,,,,34.0,34.0,1.0,1500.0,L-L,,L,L,3.0,3.0,garbagecan,cooler,garbagecan9,cooler1,38.0,0.0,/static/Size_judgement/Stimuli/Size_stims/L/garbagecan/garbagecan12.jpg,/static/Size_judgement/Stimuli/Size_stims/L/cooler/cooler8.jpg,,,,,,,,,,,105.5,1.5,1.0,
84,,iti,,html-keyboard-response,84,241233,0.0-1.0-140.0,0,0,58537,,,,,,,,,,,,,,,,,,,,,,,,,,,,,,,,,,107.0,1.5,,
85,,size_choice,,html-keyboard-response,85,242737,0.0-1.0-142.0,0,0,58537,,,,,,35.0,35.0,1.0,2000.0,S-L,1.0,L,S,3.0,1.0,cooler,teabag,cooler9,teabag1,8.0,130.0,/static/Size_judgement/Stimuli/Size_stims/L/cooler/cooler7.jpg,/static/Size_judgement/Stimuli/Size_stims/S/teabag/teabag9.jpg,,,,,,,,,,,108.5,1.5,1.0,
86,,iti,,html-keyboard-response,86,244740,0.0-1.0-144.0,0,0,58537,,,,,,,,,,,,,,,,,,,,,,,,,,,,,,,,,,110.5,2.0,,
87,,size_choice,,html-keyboard-response,87,246243,0.0-1.0-146.0,0,0,58537,,,,,,36.0,36.0,1.0,3500.0,M-L,1.0,L,M,3.0,2.0,garbagecan,ketchup,garbagecan3,ketchup5,32.0,94.0,/static/Size_judgement/Stimuli/Size_stims/L/garbagecan/garbagecan7.jpg,/static/Size_judgement/Stimuli/Size_stims/M/ketchup/ketchup3.jpg,,,,,,,,,,,112.0,1.5,1.0,
88,,iti,,html-keyboard-response,88,249746,0.0-1.0-148.0,0,0,58537,,,,,,,,,,,,,,,,,,,,,,,,,,,,,,,,,,115.5,3.5,,
89,,size_choice,,html-keyboard-response,89,251250,0.0-1.0-150.0,0,0,58537,,,,,,37.0,37.0,1.0,1500.0,M-L,1.0,L,M,3.0,2.0,mailbox,ketchup,mailbox6,ketchup4,45.0,93.0,/static/Size_judgement/Stimuli/Size_stims/L/mailbox/mailbox6.jpg,/static/Size_judgement/Stimuli/Size_stims/M/ketchup/ketchup2.jpg,,,,,,,,,,,117.0,1.5,1.0,
90,,iti,,html-keyboard-response,90,252753,0.0-1.0-152.0,0,0,58537,,,,,,,,,,,,,,,,,,,,,,,,,,,,,,,,,,118.5,1.5,,
91,,size_choice,,html-keyboard-response,91,254256,0.0-1.0-154.0,0,0,58537,,,,,,38.0,38.0,1.0,1000.0,L-L,,L,L,3.0,3.0,mailbox,garbagecan,mailbox8,garbagecan4,47.0,33.0,/static/Size_judgement/Stimuli/Size_stims/L/mailbox/mailbox10.jpg,/static/Size_judgement/Stimuli/Size_stims/L/garbagecan/garbagecan6.jpg,,,,,,,,,,,120.0,1.5,1.0,
92,,iti,,html-keyboard-response,92,255259,0.0-1.0-156.0,0,0,58537,,,,,,,,,,,,,,,,,,,,,,,,,,,,,,,,,,121.0,1.0,,
93,,size_choice,,html-keyboard-response,93,256762,0.0-1.0-158.0,0,0,58537,,,,,,39.0,39.0,1.0,1000.0,M-M,,M,M,2.0,2.0,basketball,hairdryer,basketball6,hairdryer7,55.0,76.0,/static/Size_judgement/Stimuli/Size_stims/M/basketball/basketball2.jpg,/static/Size_judgement/Stimuli/Size_stims/M/hairdryer/hairdryer3.jpg,,,,,,,,,,,122.5,1.5,1.0,
94,,iti,,html-keyboard-response,94,257764,0.0-1.0-160.0,0,0,58537,,,,,,,,,,,,,,,,,,,,,,,,,,,,,,,,,,123.5,1.0,,
95,,size_choice,,html-keyboard-response,95,259267,0.0-1.0-162.0,0,0,58537,,,,,,40.0,40.0,1.0,3000.0,S-XL,1.0,XL,S,4.0,1.0,crane,thread,crane7,thread5,166.0,144.0,/static/Size_judgement/Stimuli/Size_stims/XL/crane/crane3.jpg,/static/Size_judgement/Stimuli/Size_stims/S/thread/thread1.jpg,,,,,,,,,,,125.0,1.5,1.0,
96,,iti,,html-keyboard-response,96,262270,0.0-1.0-164.0,0,0,58537,,,,,,,,,,,,,,,,,,,,,,,,,,,,,,,,,,128.0,3.0,,
97,,size_choice,,html-keyboard-response,97,263773,0.0-1.0-166.0,0,0,58537,,,,,,41.0,41.0,1.0,1000.0,S-XL,0.0,S,XL,1.0,4.0,teabag,tractor,teabag7,tractor7,136.0,186.0,/static/Size_judgement/Stimuli/Size_stims/S/teabag/teabag10.jpg,/static/Size_judgement/Stimuli/Size_stims/XL/tractor/tractor2.jpg,,,,,,,,,,,129.5,1.5,1.0,
98,,iti,,html-keyboard-response,98,264776,0.0-1.0-168.0,0,0,58537,,,,,,,,,,,,,,,,,,,,,,,,,,,,,,,,,,130.5,1.0,,
99,,size_choice,,html-keyboard-response,99,266279,0.0-1.0-170.0,0,0,58537,,,,,,42.0,42.0,1.0,1500.0,L-XL,0.0,L,XL,3.0,4.0,garbagecan,car,garbagecan10,car6,39.0,155.0,/static/Size_judgement/Stimuli/Size_stims/L/garbagecan/garbagecan11.jpg,/static/Size_judgement/Stimuli/Size_stims/XL/car/car12.jpg,,,,,,,,,,,132.0,1.5,1.0,
100,,iti,,html-keyboard-response,100,267781,0.0-1.0-172.0,0,0,58537,,,,,,,,,,,,,,,,,,,,,,,,,,,,,,,,,,133.5,1.5,,
101,,size_choice,,html-keyboard-response,101,269286,0.0-1.0-174.0,0,0,58537,,,,,,43.0,43.0,1.0,3500.0,M-XL,1.0,XL,M,4.0,2.0,car,coffeemaker,car4,coffeemaker9,153.0,68.0,/static/Size_judgement/Stimuli/Size_stims/XL/car/car6.jpg,/static/Size_judgement/Stimuli/Size_stims/M/coffeemaker/coffeemaker7.jpg,,,,,,,,,,,135.0,1.5,1.0,
102,,iti,,html-keyboard-response,102,272789,0.0-1.0-176.0,0,0,58537,,,,,,,,,,,,,,,,,,,,,,,,,,,,,,,,,,138.5,3.5,,
103,,size_choice,,html-keyboard-response,103,274293,0.0-1.0-178.0,0,0,58537,,,,,,44.0,44.0,1.0,2000.0,L-XL,0.0,L,XL,3.0,4.0,cooler,car,cooler4,car5,3.0,154.0,/static/Size_judgement/Stimuli/Size_stims/L/cooler/cooler3.jpg,/static/Size_judgement/Stimuli/Size_stims/XL/car/car11.jpg,,,,,,,,,,,140.0,1.5,1.0,
104,,iti,,html-keyboard-response,104,276297,0.0-1.0-180.0,0,0,58537,,,,,,,,,,,,,,,,,,,,,,,,,,,,,,,,,,142.0,2.0,,
105,,block_over,,html-keyboard-response,105,294897,0.0-1.0-181.0-0.0,0,0,58537,,18598.0,,,68.0,44.0,,,,,,,,,,,,,,,,,,,,,,,,,,,,,,,
106,,size_choice,,html-keyboard-response,106,296401,0.0-1.0-182.0,0,0,58537,,,,,,45.0,45.0,2.0,3500.0,S-M,0.0,S,M,1.0,2.0,screws,handsaw,screws5,handsaw6,124.0,85.0,/static/Size_judgement/Stimuli/Size_stims/S/screws/screws2.jpg,/static/Size_judgement/Stimuli/Size_stims/M/handsaw/handsaw4.jpg,,,,,,,,,,,143.5,1.5,1.0,
107,,iti,,html-keyboard-response,107,299904,0.0-1.0-184.0,0,0,58537,,,,,,,,,,,,,,,,,,,,,,,,,,,,,,,,,,147.0,3.5,,
108,,size_choice,,html-keyboard-response,108,301408,0.0-1.0-186.0,0,0,58537,,,,,,46.0,46.0,2.0,1000.0,S-S,,S,S,1.0,1.0,screws,paperclip,screws9,paperclip6,128.0,115.0,/static/Size_judgement/Stimuli/Size_stims/S/screws/screws8.jpg,/static/Size_judgement/Stimuli/Size_stims/S/paperclip/paperclip6.jpg,,,,,,,,,,,148.5,1.5,1.0,
109,,iti,,html-keyboard-response,109,302411,0.0-1.0-188.0,0,0,58537,,,,,,,,,,,,,,,,,,,,,,,,,,,,,,,,,,149.5,1.0,,
110,,size_choice,,html-keyboard-response,110,303914,0.0-1.0-190.0,0,0,58537,,,,,,47.0,47.0,2.0,2000.0,M-XL,1.0,XL,M,4.0,2.0,crane,basketball,crane5,basketball5,164.0,54.0,/static/Size_judgement/Stimuli/Size_stims/XL/crane/crane1.jpg,/static/Size_judgement/Stimuli/Size_stims/M/basketball/basketball3.jpg,,,,,,,,,,,151.0,1.5,1.0,
111,,iti,,html-keyboard-response,111,305916,0.0-1.0-192.0,0,0,58537,,,,,,,,,,,,,,,,,,,,,,,,,,,,,,,,,,153.0,2.0,,
112,,size_choice,,html-keyboard-response,112,307420,0.0-1.0-194.0,0,0,58537,,,,,,48.0,48.0,2.0,1000.0,M-L,0.0,M,L,2.0,3.0,hairdryer,mailbox,hairdryer6,mailbox10,75.0,49.0,/static/Size_judgement/Stimuli/Size_stims/M/hairdryer/hairdryer8.jpg,/static/Size_judgement/Stimuli/Size_stims/L/mailbox/mailbox8.jpg,,,,,,,,,,,154.5,1.5,1.0,
113,,iti,,html-keyboard-response,113,308422,0.0-1.0-196.0,0,0,58537,,,,,,,,,,,,,,,,,,,,,,,,,,,,,,,,,,155.5,1.0,,
114,,size_choice,,html-keyboard-response,114,309925,0.0-1.0-198.0,0,0,58537,,,,,,49.0,49.0,2.0,2000.0,M-XL,1.0,XL,M,4.0,2.0,tractor,coffeemaker,tractor5,coffeemaker1,184.0,60.0,/static/Size_judgement/Stimuli/Size_stims/XL/tractor/tractor1.jpg,/static/Size_judgement/Stimuli/Size_stims/M/coffeemaker/coffeemaker14.jpg,,,,,,,,,,,157.0,1.5,1.0,
115,,iti,,html-keyboard-response,115,311928,0.0-1.0-200.0,0,0,58537,,,,,,,,,,,,,,,,,,,,,,,,,,,,,,,,,,159.0,2.0,,
116,,size_choice,,html-keyboard-response,116,313431,0.0-1.0-202.0,0,0,58537,,,,,,50.0,50.0,2.0,1000.0,S-XL,1.0,XL,S,4.0,1.0,car,teabag,car9,teabag10,158.0,139.0,/static/Size_judgement/Stimuli/Size_stims/XL/car/car15.jpg,/static/Size_judgement/Stimuli/Size_stims/S/teabag/teabag4.jpg,,,,,,,,,,,160.5,1.5,1.0,
117,,iti,,html-keyboard-response,117,314434,0.0-1.0-204.0,0,0,58537,,,,,,,,,,,,,,,,,,,,,,,,,,,,,,,,,,161.5,1.0,,
118,,size_choice,,html-keyboard-response,118,315937,0.0-1.0-206.0,0,0,58537,,,,,,51.0,51.0,2.0,1500.0,XL-XL,,XL,XL,4.0,4.0,crane,car,crane10,car8,169.0,157.0,/static/Size_judgement/Stimuli/Size_stims/XL/crane/crane9.jpg,/static/Size_judgement/Stimuli/Size_stims/XL/car/car14.jpg,,,,,,,,,,,163.0,1.5,1.0,
119,,iti,,html-keyboard-response,119,317440,0.0-1.0-208.0,0,0,58537,,,,,,,,,,,,,,,,,,,,,,,,,,,,,,,,,,164.5,1.5,,
120,,size_choice,,html-keyboard-response,120,318943,0.0-1.0-210.0,0,0,58537,,,,,,52.0,52.0,2.0,1000.0,M-L,0.0,M,L,2.0,3.0,coffeemaker,dishwasher,coffeemaker2,dishwasher3,61.0,22.0,/static/Size_judgement/Stimuli/Size_stims/M/coffeemaker/coffeemaker12.jpg,/static/Size_judgement/Stimuli/Size_stims/L/dishwasher/dishwasher8.jpg,,,,,,,,,,,166.0,1.5,1.0,
121,,iti,,html-keyboard-response,121,319946,0.0-1.0-212.0,0,0,58537,,,,,,,,,,,,,,,,,,,,,,,,,,,,,,,,,,167.0,1.0,,
122,,size_choice,,html-keyboard-response,122,321451,0.0-1.0-214.0,0,0,58537,,,,,,53.0,53.0,2.0,3000.0,S-L,1.0,L,S,3.0,1.0,deskchair,paperclip,deskchair4,paperclip7,13.0,116.0,/static/Size_judgement/Stimuli/Size_stims/L/deskchair/deskchair6.jpg,/static/Size_judgement/Stimuli/Size_stims/S/paperclip/paperclip7.jpg,,,,,,,,,,,168.5,1.5,1.0,
123,,iti,,html-keyboard-response,123,324455,0.0-1.0-216.0,0,0,58537,,,,,,,,,,,,,,,,,,,,,,,,,,,,,,,,,,171.5,3.0,,
124,,size_choice,,html-keyboard-response,124,325960,0.0-1.0-218.0,0,0,58537,,,,,,54.0,54.0,2.0,2000.0,S-S,,S,S,1.0,1.0,screws,paperclip,screws1,paperclip10,120.0,119.0,/static/Size_judgement/Stimuli/Size_stims/S/screws/screws4.jpg,/static/Size_judgement/Stimuli/Size_stims/S/paperclip/paperclip10.jpg,,,,,,,,,,,173.0,1.5,1.0,
125,,iti,,html-keyboard-response,125,327962,0.0-1.0-220.0,0,0,58537,,,,,,,,,,,,,,,,,,,,,,,,,,,,,,,,,,175.0,2.0,,
126,,size_choice,,html-keyboard-response,126,329466,0.0-1.0-222.0,0,0,58537,,,,,,55.0,55.0,2.0,1500.0,M-L,1.0,L,M,3.0,2.0,dishwasher,ketchup,dishwasher5,ketchup2,24.0,91.0,/static/Size_judgement/Stimuli/Size_stims/L/dishwasher/dishwasher4.jpg,/static/Size_judgement/Stimuli/Size_stims/M/ketchup/ketchup9.jpg,,,,,,,,,,,176.5,1.5,1.0,
127,,iti,,html-keyboard-response,127,330968,0.0-1.0-224.0,0,0,58537,,,,,,,,,,,,,,,,,,,,,,,,,,,,,,,,,,178.0,1.5,,
128,,size_choice,,html-keyboard-response,128,332472,0.0-1.0-226.0,0,0,58537,,,,,,56.0,56.0,2.0,1000.0,M-L,0.0,M,L,2.0,3.0,hairdryer,deskchair,hairdryer5,deskchair3,74.0,12.0,/static/Size_judgement/Stimuli/Size_stims/M/hairdryer/hairdryer15.jpg,/static/Size_judgement/Stimuli/Size_stims/L/deskchair/deskchair10.jpg,,,,,,,,,,,179.5,1.5,1.0,
129,,iti,,html-keyboard-response,129,333475,0.0-1.0-228.0,0,0,58537,,,,,,,,,,,,,,,,,,,,,,,,,,,,,,,,,,180.5,1.0,,
130,,size_choice,,html-keyboard-response,130,334977,0.0-1.0-230.0,0,0,58537,,,,,,57.0,57.0,2.0,1000.0,S-XL,0.0,S,XL,1.0,4.0,thread,dumptruck,thread7,dumptruck1,146.0,170.0,/static/Size_judgement/Stimuli/Size_stims/S/thread/thread3.jpg,/static/Size_judgement/Stimuli/Size_stims/XL/dumptruck/dumptruck9.jpg,,,,,,,,,,,182.0,1.5,1.0,
131,,iti,,html-keyboard-response,131,335981,0.0-1.0-232.0,0,0,58537,,,,,,,,,,,,,,,,,,,,,,,,,,,,,,,,,,183.0,1.0,,
132,,size_choice,,html-keyboard-response,132,337485,0.0-1.0-234.0,0,0,58537,,,,,,58.0,58.0,2.0,1000.0,S-L,0.0,S,L,1.0,3.0,teabag,dishwasher,teabag9,dishwasher6,138.0,25.0,/static/Size_judgement/Stimuli/Size_stims/S/teabag/teabag5.jpg,/static/Size_judgement/Stimuli/Size_stims/L/dishwasher/dishwasher6.jpg,,,,,,,,,,,184.5,1.5,1.0,
133,,iti,,html-keyboard-response,133,338497,0.0-1.0-236.0,0,0,58537,,,,,,,,,,,,,,,,,,,,,,,,,,,,,,,,,,185.5,1.0,,
134,,size_choice,,html-keyboard-response,134,340002,0.0-1.0-238.0,0,0,58537,,,,,,59.0,59.0,2.0,1000.0,M-M,,M,M,2.0,2.0,basketball,ketchup,basketball2,ketchup10,51.0,99.0,/static/Size_judgement/Stimuli/Size_stims/M/basketball/basketball8.jpg,/static/Size_judgement/Stimuli/Size_stims/M/ketchup/ketchup6.jpg,,,,,,,,,,,187.0,1.5,1.0,
135,,iti,,html-keyboard-response,135,341005,0.0-1.0-240.0,0,0,58537,,,,,,,,,,,,,,,,,,,,,,,,,,,,,,,,,,188.0,1.0,,
136,,size_choice,,html-keyboard-response,136,342508,0.0-1.0-242.0,0,0,58537,,,,,,60.0,60.0,2.0,1500.0,M-XL,0.0,M,XL,2.0,4.0,ketchup,dumptruck,ketchup1,dumptruck3,90.0,172.0,/static/Size_judgement/Stimuli/Size_stims/M/ketchup/ketchup8.jpg,/static/Size_judgement/Stimuli/Size_stims/XL/dumptruck/dumptruck10.jpg,,,,,,,,,,,189.5,1.5,1.0,
137,,iti,,html-keyboard-response,137,344012,0.0-1.0-244.0,0,0,58537,,,,,,,,,,,,,,,,,,,,,,,,,,,,,,,,,,191.0,1.5,,
138,,size_choice,,html-keyboard-response,138,345514,0.0-1.0-246.0,0,0,58537,,,,,,61.0,61.0,2.0,1500.0,M-XL,0.0,M,XL,2.0,4.0,basketball,tractor,basketball1,tractor1,50.0,180.0,/static/Size_judgement/Stimuli/Size_stims/M/basketball/basketball9.jpg,/static/Size_judgement/Stimuli/Size_stims/XL/tractor/tractor6.jpg,,,,,,,,,,,192.5,1.5,1.0,
139,,iti,,html-keyboard-response,139,347017,0.0-1.0-248.0,0,0,58537,,,,,,,,,,,,,,,,,,,,,,,,,,,,,,,,,,194.0,1.5,,
140,,size_choice,,html-keyboard-response,140,348520,0.0-1.0-250.0,0,0,58537,,,,,,62.0,62.0,2.0,3000.0,L-XL,0.0,L,XL,3.0,4.0,cooler,van,cooler2,van9,1.0,198.0,/static/Size_judgement/Stimuli/Size_stims/L/cooler/cooler9.jpg,/static/Size_judgement/Stimuli/Size_stims/XL/van/van9.jpg,,,,,,,,,,,195.5,1.5,1.0,
141,,iti,,html-keyboard-response,141,351523,0.0-1.0-252.0,0,0,58537,,,,,,,,,,,,,,,,,,,,,,,,,,,,,,,,,,198.5,3.0,,
142,,size_choice,,html-keyboard-response,142,353026,0.0-1.0-254.0,0,0,58537,,,,,,63.0,63.0,2.0,3500.0,S-L,0.0,S,L,1.0,3.0,thread,dishwasher,thread2,dishwasher7,141.0,26.0,/static/Size_judgement/Stimuli/Size_stims/S/thread/thread6.jpg,/static/Size_judgement/Stimuli/Size_stims/L/dishwasher/dishwasher7.jpg,,,,,,,,,,,200.0,1.5,1.0,
143,,iti,,html-keyboard-response,143,356531,0.0-1.0-256.0,0,0,58537,,,,,,,,,,,,,,,,,,,,,,,,,,,,,,,,,,203.5,3.5,,
144,,size_choice,,html-keyboard-response,144,358036,0.0-1.0-258.0,0,0,58537,,,,,,64.0,64.0,2.0,1500.0,M-L,0.0,M,L,2.0,3.0,handsaw,cooler,handsaw8,cooler7,87.0,6.0,/static/Size_judgement/Stimuli/Size_stims/M/handsaw/handsaw7.jpg,/static/Size_judgement/Stimuli/Size_stims/L/cooler/cooler4.jpg,,,,,,,,,,,205.0,1.5,1.0,
145,,iti,,html-keyboard-response,145,359539,0.0-1.0-260.0,0,0,58537,,,,,,,,,,,,,,,,,,,,,,,,,,,,,,,,,,206.5,1.5,,
146,,size_choice,,html-keyboard-response,146,361043,0.0-1.0-262.0,0,0,58537,,,,,,65.0,65.0,2.0,2000.0,M-L,0.0,M,L,2.0,3.0,handsaw,mailbox,handsaw5,mailbox1,84.0,40.0,/static/Size_judgement/Stimuli/Size_stims/M/handsaw/handsaw1.jpg,/static/Size_judgement/Stimuli/Size_stims/L/mailbox/mailbox3.jpg,,,,,,,,,,,208.0,1.5,1.0,
147,,iti,,html-keyboard-response,147,363045,0.0-1.0-264.0,0,0,58537,,,,,,,,,,,,,,,,,,,,,,,,,,,,,,,,,,210.0,2.0,,
148,,size_choice,,html-keyboard-response,148,364549,0.0-1.0-266.0,0,0,58537,,,,,,66.0,66.0,2.0,1000.0,M-XL,1.0,XL,M,4.0,2.0,car,ketchup,car10,ketchup8,159.0,97.0,/static/Size_judgement/Stimuli/Size_stims/XL/car/car9.jpg,/static/Size_judgement/Stimuli/Size_stims/M/ketchup/ketchup5.jpg,,,,,,,,,,,211.5,1.5,1.0,
149,,iti,,html-keyboard-response,149,365552,0.0-1.0-268.0,0,0,58537,,,,,,,,,,,,,,,,,,,,,,,,,,,,,,,,,,212.5,1.0,,
150,,size_choice,,html-keyboard-response,150,367055,0.0-1.0-270.0,0,0,58537,,,,,,67.0,67.0,2.0,1000.0,S-L,1.0,L,S,3.0,1.0,deskchair,thread,deskchair6,thread3,15.0,142.0,/static/Size_judgement/Stimuli/Size_stims/L/deskchair/deskchair5.jpg,/static/Size_judgement/Stimuli/Size_stims/S/thread/thread4.jpg,,,,,,,,,,,214.0,1.5,1.0,
151,,iti,,html-keyboard-response,151,368058,0.0-1.0-272.0,0,0,58537,,,,,,,,,,,,,,,,,,,,,,,,,,,,,,,,,,215.0,1.0,,
152,,size_choice,,html-keyboard-response,152,369562,0.0-1.0-274.0,0,0,58537,,,,,,68.0,68.0,2.0,2000.0,S-XL,0.0,S,XL,1.0,4.0,screws,dumptruck,screws3,dumptruck4,122.0,173.0,/static/Size_judgement/Stimuli/Size_stims/S/screws/screws7.jpg,/static/Size_judgement/Stimuli/Size_stims/XL/dumptruck/dumptruck1.jpg,,,,,,,,,,,216.5,1.5,1.0,
153,,iti,,html-keyboard-response,153,371566,0.0-1.0-276.0,0,0,58537,,,,,,,,,,,,,,,,,,,,,,,,,,,,,,,,,,218.5,2.0,,
154,,size_choice,,html-keyboard-response,154,373068,0.0-1.0-278.0,0,0,58537,,,,,,69.0,69.0,2.0,3000.0,S-XL,0.0,S,XL,1.0,4.0,paperclip,dumptruck,paperclip8,dumptruck7,117.0,176.0,/static/Size_judgement/Stimuli/Size_stims/S/paperclip/paperclip5.jpg,/static/Size_judgement/Stimuli/Size_stims/XL/dumptruck/dumptruck6.jpg,,,,,,,,,,,220.0,1.5,1.0,
155,,iti,,html-keyboard-response,155,376070,0.0-1.0-280.0,0,0,58537,,,,,,,,,,,,,,,,,,,,,,,,,,,,,,,,,,223.0,3.0,,
156,,size_choice,,html-keyboard-response,156,377573,0.0-1.0-282.0,0,0,58537,,,,,,70.0,70.0,2.0,1500.0,S-L,0.0,S,L,1.0,3.0,die,deskchair,die1,deskchair8,100.0,17.0,/static/Size_judgement/Stimuli/Size_stims/S/die/die8.jpg,/static/Size_judgement/Stimuli/Size_stims/L/deskchair/deskchair1.jpg,,,,,,,,,,,224.5,1.5,1.0,
157,,iti,,html-keyboard-response,157,379074,0.0-1.0-284.0,0,0,58537,,,,,,,,,,,,,,,,,,,,,,,,,,,,,,,,,,226.0,1.5,,
158,,size_choice,,html-keyboard-response,158,380578,0.0-1.0-286.0,0,0,58537,,,,,,71.0,71.0,2.0,1500.0,XL-XL,,XL,XL,4.0,4.0,tractor,van,tractor3,van8,182.0,197.0,/static/Size_judgement/Stimuli/Size_stims/XL/tractor/tractor5.jpg,/static/Size_judgement/Stimuli/Size_stims/XL/van/van10.jpg,,,,,,,,,,,227.5,1.5,1.0,
159,,iti,,html-keyboard-response,159,382080,0.0-1.0-288.0,0,0,58537,,,,,,,,,,,,,,,,,,,,,,,,,,,,,,,,,,229.0,1.5,,
160,,size_choice,,html-keyboard-response,160,383584,0.0-1.0-290.0,0,0,58537,,,,,,72.0,72.0,2.0,1500.0,S-XL,0.0,S,XL,1.0,4.0,paperclip,dumptruck,paperclip4,dumptruck5,113.0,174.0,/static/Size_judgement/Stimuli/Size_stims/S/paperclip/paperclip3.jpg,/static/Size_judgement/Stimuli/Size_stims/XL/dumptruck/dumptruck3.jpg,,,,,,,,,,,230.5,1.5,1.0,
161,,iti,,html-keyboard-response,161,385087,0.0-1.0-292.0,0,0,58537,,,,,,,,,,,,,,,,,,,,,,,,,,,,,,,,,,232.0,1.5,,
162,,size_choice,,html-keyboard-response,162,386592,0.0-1.0-294.0,0,0,58537,,,,,,73.0,73.0,2.0,3000.0,M-L,0.0,M,L,2.0,3.0,coffeemaker,dishwasher,coffeemaker6,dishwasher4,65.0,23.0,/static/Size_judgement/Stimuli/Size_stims/M/coffeemaker/coffeemaker8.jpg,/static/Size_judgement/Stimuli/Size_stims/L/dishwasher/dishwasher5.jpg,,,,,,,,,,,233.5,1.5,1.0,
163,,iti,,html-keyboard-response,163,389595,0.0-1.0-296.0,0,0,58537,,,,,,,,,,,,,,,,,,,,,,,,,,,,,,,,,,236.5,3.0,,
164,,size_choice,,html-keyboard-response,164,391098,0.0-1.0-298.0,0,0,58537,,,,,,74.0,74.0,2.0,1500.0,S-XL,1.0,XL,S,4.0,1.0,car,die,car1,die9,150.0,108.0,/static/Size_judgement/Stimuli/Size_stims/XL/car/car2.jpg,/static/Size_judgement/Stimuli/Size_stims/S/die/die7.jpg,,,,,,,,,,,238.0,1.5,1.0,
165,,iti,,html-keyboard-response,165,392601,0.0-1.0-300.0,0,0,58537,,,,,,,,,,,,,,,,,,,,,,,,,,,,,,,,,,239.5,1.5,,
166,,size_choice,,html-keyboard-response,166,394104,0.0-1.0-302.0,0,0,58537,,,,,,75.0,75.0,2.0,1500.0,M-XL,1.0,XL,M,4.0,2.0,crane,handsaw,crane1,handsaw10,160.0,89.0,/static/Size_judgement/Stimuli/Size_stims/XL/crane/crane7.jpg,/static/Size_judgement/Stimuli/Size_stims/M/handsaw/handsaw10.jpg,,,,,,,,,,,241.0,1.5,1.0,
167,,iti,,html-keyboard-response,167,395607,0.0-1.0-304.0,0,0,58537,,,,,,,,,,,,,,,,,,,,,,,,,,,,,,,,,,242.5,1.5,,
168,,size_choice,,html-keyboard-response,168,397111,0.0-1.0-306.0,0,0,58537,,,,,,76.0,76.0,2.0,1500.0,S-XL,1.0,XL,S,4.0,1.0,tractor,screws,tractor2,screws6,181.0,125.0,/static/Size_judgement/Stimuli/Size_stims/XL/tractor/tractor7.jpg,/static/Size_judgement/Stimuli/Size_stims/S/screws/screws3.jpg,,,,,,,,,,,244.0,1.5,1.0,
169,,iti,,html-keyboard-response,169,398613,0.0-1.0-308.0,0,0,58537,,,,,,,,,,,,,,,,,,,,,,,,,,,,,,,,,,245.5,1.5,,
170,,size_choice,,html-keyboard-response,170,400118,0.0-1.0-310.0,0,0,58537,,,,,,77.0,77.0,2.0,2000.0,M-L,0.0,M,L,2.0,3.0,coffeemaker,deskchair,coffeemaker4,deskchair5,63.0,14.0,/static/Size_judgement/Stimuli/Size_stims/M/coffeemaker/coffeemaker11.jpg,/static/Size_judgement/Stimuli/Size_stims/L/deskchair/deskchair7.jpg,,,,,,,,,,,247.0,1.5,1.0,
171,,iti,,html-keyboard-response,171,402121,0.0-1.0-312.0,0,0,58537,,,,,,,,,,,,,,,,,,,,,,,,,,,,,,,,,,249.0,2.0,,
172,,size_choice,,html-keyboard-response,172,403625,0.0-1.0-314.0,0,0,58537,,,,,,78.0,78.0,2.0,1500.0,M-XL,1.0,XL,M,4.0,2.0,dumptruck,coffeemaker,dumptruck10,coffeemaker10,179.0,69.0,/static/Size_judgement/Stimuli/Size_stims/XL/dumptruck/dumptruck4.jpg,/static/Size_judgement/Stimuli/Size_stims/M/coffeemaker/coffeemaker18.jpg,,,,,,,,,,,250.5,1.5,1.0,
173,,iti,,html-keyboard-response,173,405129,0.0-1.0-316.0,0,0,58537,,,,,,,,,,,,,,,,,,,,,,,,,,,,,,,,,,252.0,1.5,,
174,,size_choice,,html-keyboard-response,174,406636,0.0-1.0-318.0,0,0,58537,,,,,,79.0,79.0,2.0,1000.0,L-L,,L,L,3.0,3.0,mailbox,cooler,mailbox4,cooler6,43.0,5.0,/static/Size_judgement/Stimuli/Size_stims/L/mailbox/mailbox5.jpg,/static/Size_judgement/Stimuli/Size_stims/L/cooler/cooler1.jpg,,,,,,,,,,,253.5,1.5,1.0,
175,,iti,,html-keyboard-response,175,407639,0.0-1.0-320.0,0,0,58537,,,,,,,,,,,,,,,,,,,,,,,,,,,,,,,,,,254.5,1.0,,
176,,size_choice,,html-keyboard-response,176,409142,0.0-1.0-322.0,0,0,58537,,,,,,80.0,80.0,2.0,1000.0,S-M,0.0,S,M,1.0,2.0,die,basketball,die3,basketball3,102.0,52.0,/static/Size_judgement/Stimuli/Size_stims/S/die/die10.jpg,/static/Size_judgement/Stimuli/Size_stims/M/basketball/basketball10.jpg,,,,,,,,,,,256.0,1.5,1.0,
177,,iti,,html-keyboard-response,177,410144,0.0-1.0-324.0,0,0,58537,,,,,,,,,,,,,,,,,,,,,,,,,,,,,,,,,,257.0,1.0,,
178,,size_choice,,html-keyboard-response,178,411647,0.0-1.0-326.0,0,0,58537,,,,,,81.0,81.0,2.0,2000.0,S-L,0.0,S,L,1.0,3.0,thread,garbagecan,thread9,garbagecan7,148.0,36.0,/static/Size_judgement/Stimuli/Size_stims/S/thread/thread8.jpg,/static/Size_judgement/Stimuli/Size_stims/L/garbagecan/garbagecan16.jpg,,,,,,,,,,,258.5,1.5,1.0,
179,,iti,,html-keyboard-response,179,413650,0.0-1.0-328.0,0,0,58537,,,,,,,,,,,,,,,,,,,,,,,,,,,,,,,,,,260.5,2.0,,
180,,size_choice,,html-keyboard-response,180,415155,0.0-1.0-330.0,0,0,58537,,,,,,82.0,82.0,2.0,2000.0,M-XL,1.0,XL,M,4.0,2.0,tractor,basketball,tractor8,basketball8,187.0,57.0,/static/Size_judgement/Stimuli/Size_stims/XL/tractor/tractor10.jpg,/static/Size_judgement/Stimuli/Size_stims/M/basketball/basketball7.jpg,,,,,,,,,,,262.0,1.5,1.0,
181,,iti,,html-keyboard-response,181,417159,0.0-1.0-332.0,0,0,58537,,,,,,,,,,,,,,,,,,,,,,,,,,,,,,,,,,264.0,2.0,,
182,,size_choice,,html-keyboard-response,182,418663,0.0-1.0-334.0,0,0,58537,,,,,,83.0,83.0,2.0,1000.0,S-XL,0.0,S,XL,1.0,4.0,screws,van,screws2,van3,121.0,192.0,/static/Size_judgement/Stimuli/Size_stims/S/screws/screws5.jpg,/static/Size_judgement/Stimuli/Size_stims/XL/van/van6.jpg,,,,,,,,,,,265.5,1.5,1.0,
183,,iti,,html-keyboard-response,183,419666,0.0-1.0-336.0,0,0,58537,,,,,,,,,,,,,,,,,,,,,,,,,,,,,,,,,,266.5,1.0,,
184,,size_choice,,html-keyboard-response,184,421171,0.0-1.0-338.0,0,0,58537,,,,,,84.0,84.0,2.0,1000.0,L-L,,L,L,3.0,3.0,cooler,dishwasher,cooler3,dishwasher9,2.0,28.0,/static/Size_judgement/Stimuli/Size_stims/L/cooler/cooler2.jpg,/static/Size_judgement/Stimuli/Size_stims/L/dishwasher/dishwasher2.jpg,,,,,,,,,,,268.0,1.5,1.0,
185,,iti,,html-keyboard-response,185,422174,0.0-1.0-340.0,0,0,58537,,,,,,,,,,,,,,,,,,,,,,,,,,,,,,,,,,269.0,1.0,,
186,,size_choice,,html-keyboard-response,186,423679,0.0-1.0-342.0,0,0,58537,,,,,,85.0,85.0,2.0,1000.0,M-M,,M,M,2.0,2.0,hairdryer,handsaw,hairdryer10,handsaw2,79.0,81.0,/static/Size_judgement/Stimuli/Size_stims/M/hairdryer/hairdryer6.jpg,/static/Size_judgement/Stimuli/Size_stims/M/handsaw/handsaw9.jpg,,,,,,,,,,,270.5,1.5,1.0,
187,,iti,,html-keyboard-response,187,424683,0.0-1.0-344.0,0,0,58537,,,,,,,,,,,,,,,,,,,,,,,,,,,,,,,,,,271.5,1.0,,
188,,size_choice,,html-keyboard-response,188,426185,0.0-1.0-346.0,0,0,58537,,,,,,86.0,86.0,2.0,1000.0,L-XL,0.0,L,XL,3.0,4.0,garbagecan,crane,garbagecan6,crane2,35.0,161.0,/static/Size_judgement/Stimuli/Size_stims/L/garbagecan/garbagecan14.jpg,/static/Size_judgement/Stimuli/Size_stims/XL/crane/crane6.jpg,,,,,,,,,,,273.0,1.5,1.0,
189,,iti,,html-keyboard-response,189,427187,0.0-1.0-348.0,0,0,58537,,,,,,,,,,,,,,,,,,,,,,,,,,,,,,,,,,274.0,1.0,,
190,,size_choice,,html-keyboard-response,190,428691,0.0-1.0-350.0,0,0,58537,,,,,,87.0,87.0,2.0,1000.0,XL-XL,,XL,XL,4.0,4.0,car,tractor,car2,tractor10,151.0,189.0,/static/Size_judgement/Stimuli/Size_stims/XL/car/car3.jpg,/static/Size_judgement/Stimuli/Size_stims/XL/tractor/tractor8.jpg,,,,,,,,,,,275.5,1.5,1.0,
191,,iti,,html-keyboard-response,191,429694,0.0-1.0-352.0,0,0,58537,,,,,,,,,,,,,,,,,,,,,,,,,,,,,,,,,,276.5,1.0,,
192,,size_choice,,html-keyboard-response,192,431198,0.0-1.0-354.0,0,0,58537,,,,,,88.0,88.0,2.0,1000.0,S-L,1.0,L,S,3.0,1.0,deskchair,screws,deskchair7,screws10,16.0,129.0,/static/Size_judgement/Stimuli/Size_stims/L/deskchair/deskchair4.jpg,/static/Size_judgement/Stimuli/Size_stims/S/screws/screws9.jpg,,,,,,,,,,,278.0,1.5,1.0,
193,,iti,,html-keyboard-response,193,432210,0.0-1.0-356.0,0,0,58537,,,,,,,,,,,,,,,,,,,,,,,,,,,,,,,,,,279.0,1.0,,
194,,size_choice,,html-keyboard-response,194,433716,0.0-1.0-358.0,0,0,58537,,,,,,89.0,89.0,2.0,3500.0,S-L,1.0,L,S,3.0,1.0,garbagecan,teabag,garbagecan1,teabag4,30.0,133.0,/static/Size_judgement/Stimuli/Size_stims/L/garbagecan/garbagecan4.jpg,/static/Size_judgement/Stimuli/Size_stims/S/teabag/teabag3.jpg,,,,,,,,,,,280.5,1.5,1.0,
195,,iti,,html-keyboard-response,195,437220,0.0-1.0-360.0,0,0,58537,,,,,,,,,,,,,,,,,,,,,,,,,,,,,,,,,,284.0,3.5,,0.01
196,,size_final_tally,,html-keyboard-response,196,465417,0.0-2.0,0,0,58537,,28194.0,,,68.0,,,,,,,,,,,,,,,,,,,,,,,,,,,,,,,,
197,,debreif_intro,,html-keyboard-response,197,468214,0.0-3.0,0,0,58537,,2765.0,,,68.0,,,,,,,,,,,,,,,,,,,,,,,,,,,,,,,,
198,,debreif_age,,survey-text,198,472572,0.0-4.0,0,0,58537,,4355.0,"{""Q0"":""42""}",,,,,,,,,,,,,,,,,,,,,,,,,,,,,,,,,,
199,,debreif_gender,,survey-multi-choice,199,474208,0.0-5.0,0,0,58537,,1632.0,"{""Q0"":""Male""}",,,,,,,,,,,,,,,,,,,,,,,,,,,,,,,,,,
200,,debreif_dominant_hand,,survey-multi-choice,200,479095,0.0-6.0,0,0,58537,,4883.0,"{""Q0"":""Right""}",,,,,,,,,,,,,,,,,,,,,,,,,,,,,,,,,,
201,,debreif_native_language,,survey-multi-choice,201,482150,0.0-7.0,0,0,58537,,3051.0,"{""Q0"":""Yes""}",,,,,,,,,,,,,,,,,,,,,,,,,,,,,,,,,,
202,,debreif_fluency,,survey-likert,202,485357,0.0-8.0,0,0,58537,,3202.0,"{""Q0"":5}",,,,,,,,,,,,,,,,,,,,,,,,,,,,,,,,,,
203,,debreif_strategy_category_learning,,survey-text,203,495228,0.0-9.0,0,0,58537,,9868.0,"{""Q0"":""six round""}",,,,,,,,,,,,,,,,,,,,,,,,,,,,,,,,,,
204,,debreif_strategy_old_trials,,survey-text,204,506709,0.0-10.0,0,0,58537,,11478.0,"{""Q0"":""no""}",,,,,,,,,,,,,,,,,,,,,,,,,,,,,,,,,,
205,,debreif_strategy_category_memory,,survey-text,205,512100,0.0-11.0,0,0,58537,,5388.0,"{""Q0"":""50""}",,,,,,,,,,,,,,,,,,,,,,,,,,,,,,,,,,
206,,debreif_strategy_size,,survey-text,206,519637,0.0-12.0,0,0,58537,,7535.0,"{""Q0"":""d""}",,,,,,,,,,,,,,,,,,,,,,,,,,,,,,,,,,
207,,debreif_strategy_rl,,survey-text,207,524708,0.0-13.0,0,0,58537,,5068.0,"{""Q0"":""yes""}",,,,,,,,,,,,,,,,,,,,,,,,,,,,,,,,,,
208,,debreif_clear_instructions,,survey-text,208,528380,0.0-14.0,0,0,58537,,3670.0,"{""Q0"":""clear""}",,,,,,,,,,,,,,,,,,,,,,,,,,,,,,,,,,
209,,debreif_end,,html-keyboard-response,209,548561,0.0-15.0,0,0,58537,,20179.0,,,32.0,,,,,,,,,,,,,,,,,,,,,,,,,,,,,,,,
