,success,ttype,start_time,trial_type,trial_index,time_elapsed,internal_node_id,warning,missed_checkup,PID,view_history,rt,responses,repeat_instructions,key_press,index,trial_num,block,iti,pair_type,high_size_on_left,left_size_group,right_size_group,left_size_num,right_size_num,left_category,right_category,left_exemplar,right_exemplar,left_index,right_index,left_img_path,right_img_path,accuracy,onset,duration,no_response,left_chosen,chosen_category,unchosen_category,chosen_size_group,unchosen_size_group,chosen_size_num,unchosen_size_num,chosen_exemplar,unchosen_exemplar,size_final_tally
0,True,full_screen,d06072022hr1218,fullscreen,0,3648,0.0-0.0,0,0,63784,,,,,,,,,,,,,,,,,,,,,,,,,,,,,,,,,,,,,
1,,size_instructions,,instructions,1,27596,0.0-1.0-0.0-0.0,0,0,63784,"[{""page_index"":0,""viewing_time"":6272},{""page_index"":1,""viewing_time"":4511},{""page_index"":2,""viewing_time"":3246},{""page_index"":3,""viewing_time"":2514},{""page_index"":4,""viewing_time"":4622},{""page_index"":5,""viewing_time"":2780}]",23946.0,,,,,,,,,,,,,,,,,,,,,,,,,,,,,,,,,,,
2,,size_comprehension_check,,survey-multi-choice,2,38239,0.0-1.0-0.0-1.0,0,0,63784,,10639.0,"{""Q0"":""True"",""Q1"":""Size in the real world"",""Q2"":""True"",""Q3"":""D for left and K for right""}",0.0,,,,,,,,,,,,,,,,,,,,,,,,,,,,,,,,,
3,,,,html-keyboard-response,3,40081,0.0-1.0-1.0,0,0,63784,,1839.0,,,68.0,,,,,,,,,,,,,,,,,,,,,,,,,,,,,,,,
4,,size_choice,,html-keyboard-response,4,41589,0.0-1.0-2.0,0,0,63784,,,,,,0.0,0.0,1.0,2000.0,L-L,,L,L,3.0,3.0,deskchair,mailbox,deskchair10,mailbox3,19.0,42.0,/static/Size_judgement/Stimuli/Size_stims/L/deskchair/deskchair2.jpg,/static/Size_judgement/Stimuli/Size_stims/L/mailbox/mailbox1.jpg,,1.5,1.5,1.0,,,,,,,,,,
5,,iti,,html-keyboard-response,5,43597,0.0-1.0-4.0,0,0,63784,,,,,,0.0,,1.0,,,,,,,,,,,,,,,,,3.5,2.0,,,,,,,,,,,
6,,size_choice,,html-keyboard-response,6,44588,0.0-1.0-6.0,0,0,63784,,989.0,,,68.0,1.0,1.0,1.0,1000.0,S-XL,1.0,XL,S,4.0,1.0,dumptruck,teabag,dumptruck9,teabag3,178.0,132.0,/static/Size_judgement/Stimuli/Size_stims/XL/dumptruck/dumptruck5.jpg,/static/Size_judgement/Stimuli/Size_stims/S/teabag/teabag1.jpg,1.0,4.489,0.989,0.0,1.0,dumptruck,teabag,XL,S,4.0,1.0,dumptruck9,teabag3,
7,,size_choice_confirmation,,html-keyboard-response,7,45106,0.0-1.0-7.0-0.0,0,0,63784,,,,,,1.0,,1.0,,,,,,,,,,,,,,,,,5.0,0.511,,,,,,,,,,,
8,,iti,,html-keyboard-response,8,46110,0.0-1.0-8.0,0,0,63784,,,,,,1.0,,1.0,,,,,,,,,,,,,,,,,6.0,1.0,,,,,,,,,,,
9,,size_choice,,html-keyboard-response,9,46994,0.0-1.0-10.0,0,0,63784,,882.0,,,68.0,2.0,2.0,1.0,1000.0,M-L,1.0,L,M,3.0,2.0,mailbox,ketchup,mailbox9,ketchup7,48.0,96.0,/static/Size_judgement/Stimuli/Size_stims/L/mailbox/mailbox9.jpg,/static/Size_judgement/Stimuli/Size_stims/M/ketchup/ketchup4.jpg,1.0,6.882,0.882,0.0,1.0,mailbox,ketchup,L,M,3.0,2.0,mailbox9,ketchup7,
10,,size_choice_confirmation,,html-keyboard-response,10,47618,0.0-1.0-11.0-0.0,0,0,63784,,,,,,2.0,,1.0,,,,,,,,,,,,,,,,,7.5,0.618,,,,,,,,,,,
11,,iti,,html-keyboard-response,11,48625,0.0-1.0-12.0,0,0,63784,,,,,,2.0,,1.0,,,,,,,,,,,,,,,,,8.5,1.0,,,,,,,,,,,
12,,size_choice,,html-keyboard-response,12,49397,0.0-1.0-14.0,0,0,63784,,769.0,,,68.0,3.0,3.0,1.0,2000.0,M-XL,1.0,XL,M,4.0,2.0,dumptruck,ketchup,dumptruck4,ketchup2,173.0,91.0,/static/Size_judgement/Stimuli/Size_stims/XL/dumptruck/dumptruck1.jpg,/static/Size_judgement/Stimuli/Size_stims/M/ketchup/ketchup9.jpg,1.0,9.269,0.769,0.0,1.0,dumptruck,ketchup,XL,M,4.0,2.0,dumptruck4,ketchup2,
13,,size_choice_confirmation,,html-keyboard-response,13,50132,0.0-1.0-15.0-0.0,0,0,63784,,,,,,3.0,,1.0,,,,,,,,,,,,,,,,,10.0,0.731,,,,,,,,,,,
14,,iti,,html-keyboard-response,14,52137,0.0-1.0-16.0,0,0,63784,,,,,,3.0,,1.0,,,,,,,,,,,,,,,,,12.0,2.0,,,,,,,,,,,
15,,size_choice,,html-keyboard-response,15,53044,0.0-1.0-18.0,0,0,63784,,904.0,,,75.0,4.0,4.0,1.0,1000.0,L-XL,0.0,L,XL,3.0,4.0,garbagecan,dumptruck,garbagecan9,dumptruck7,38.0,176.0,/static/Size_judgement/Stimuli/Size_stims/L/garbagecan/garbagecan12.jpg,/static/Size_judgement/Stimuli/Size_stims/XL/dumptruck/dumptruck6.jpg,1.0,12.904,0.904,0.0,0.0,dumptruck,garbagecan,XL,L,4.0,3.0,dumptruck7,garbagecan9,
16,,size_choice_confirmation,,html-keyboard-response,16,53648,0.0-1.0-19.0-0.0,0,0,63784,,,,,,4.0,,1.0,,,,,,,,,,,,,,,,,13.5,0.596,,,,,,,,,,,
17,,iti,,html-keyboard-response,17,54657,0.0-1.0-20.0,0,0,63784,,,,,,4.0,,1.0,,,,,,,,,,,,,,,,,14.5,1.0,,,,,,,,,,,
18,,size_choice,,html-keyboard-response,18,55640,0.0-1.0-22.0,0,0,63784,,981.0,,,68.0,5.0,5.0,1.0,1500.0,S-L,1.0,L,S,3.0,1.0,mailbox,thread,mailbox8,thread8,47.0,147.0,/static/Size_judgement/Stimuli/Size_stims/L/mailbox/mailbox10.jpg,/static/Size_judgement/Stimuli/Size_stims/S/thread/thread10.jpg,1.0,15.481,0.981,0.0,1.0,mailbox,thread,L,S,3.0,1.0,mailbox8,thread8,
19,,size_choice_confirmation,,html-keyboard-response,19,56165,0.0-1.0-23.0-0.0,0,0,63784,,,,,,5.0,,1.0,,,,,,,,,,,,,,,,,16.0,0.519,,,,,,,,,,,
20,,iti,,html-keyboard-response,20,57674,0.0-1.0-24.0,0,0,63784,,,,,,5.0,,1.0,,,,,,,,,,,,,,,,,17.5,1.5,,,,,,,,,,,
21,,size_choice,,html-keyboard-response,21,58436,0.0-1.0-26.0,0,0,63784,,759.0,,,68.0,6.0,6.0,1.0,2000.0,S-L,1.0,L,S,3.0,1.0,garbagecan,teabag,garbagecan6,teabag10,35.0,139.0,/static/Size_judgement/Stimuli/Size_stims/L/garbagecan/garbagecan14.jpg,/static/Size_judgement/Stimuli/Size_stims/S/teabag/teabag4.jpg,1.0,18.259,0.759,0.0,1.0,garbagecan,teabag,L,S,3.0,1.0,garbagecan6,teabag10,
22,,size_choice_confirmation,,html-keyboard-response,22,59179,0.0-1.0-27.0-0.0,0,0,63784,,,,,,6.0,,1.0,,,,,,,,,,,,,,,,,19.0,0.741,,,,,,,,,,,
23,,iti,,html-keyboard-response,23,61186,0.0-1.0-28.0,0,0,63784,,,,,,6.0,,1.0,,,,,,,,,,,,,,,,,21.0,2.0,,,,,,,,,,,
24,,size_choice,,html-keyboard-response,24,61807,0.0-1.0-30.0,0,0,63784,,618.0,,,68.0,7.0,7.0,1.0,1000.0,M-XL,1.0,XL,M,4.0,2.0,car,ketchup,car2,ketchup5,151.0,94.0,/static/Size_judgement/Stimuli/Size_stims/XL/car/car3.jpg,/static/Size_judgement/Stimuli/Size_stims/M/ketchup/ketchup3.jpg,1.0,21.618,0.618,0.0,1.0,car,ketchup,XL,M,4.0,2.0,car2,ketchup5,
25,,size_choice_confirmation,,html-keyboard-response,25,62693,0.0-1.0-31.0-0.0,0,0,63784,,,,,,7.0,,1.0,,,,,,,,,,,,,,,,,22.5,0.882,,,,,,,,,,,
26,,iti,,html-keyboard-response,26,63699,0.0-1.0-32.0,0,0,63784,,,,,,7.0,,1.0,,,,,,,,,,,,,,,,,23.5,1.0,,,,,,,,,,,
27,,size_choice,,html-keyboard-response,27,64534,0.0-1.0-34.0,0,0,63784,,834.0,,,68.0,8.0,8.0,1.0,1000.0,XL-XL,,XL,XL,4.0,4.0,van,car,van3,car4,192.0,153.0,/static/Size_judgement/Stimuli/Size_stims/XL/van/van6.jpg,/static/Size_judgement/Stimuli/Size_stims/XL/car/car6.jpg,,24.334,0.834,0.0,1.0,van,car,XL,XL,4.0,4.0,van3,car4,
28,,size_choice_confirmation,,html-keyboard-response,28,65205,0.0-1.0-35.0-0.0,0,0,63784,,,,,,8.0,,1.0,,,,,,,,,,,,,,,,,25.0,0.666,,,,,,,,,,,
29,,iti,,html-keyboard-response,29,66216,0.0-1.0-36.0,0,0,63784,,,,,,8.0,,1.0,,,,,,,,,,,,,,,,,26.0,1.0,,,,,,,,,,,
30,,size_choice,,html-keyboard-response,30,66751,0.0-1.0-38.0,0,0,63784,,533.0,,,75.0,9.0,9.0,1.0,1500.0,S-XL,0.0,S,XL,1.0,4.0,teabag,dumptruck,teabag8,dumptruck8,137.0,177.0,/static/Size_judgement/Stimuli/Size_stims/S/teabag/teabag7.jpg,/static/Size_judgement/Stimuli/Size_stims/XL/dumptruck/dumptruck7.jpg,1.0,26.533,0.533,0.0,0.0,dumptruck,teabag,XL,S,4.0,1.0,dumptruck8,teabag8,
31,,size_choice_confirmation,,html-keyboard-response,31,67720,0.0-1.0-39.0-0.0,0,0,63784,,,,,,9.0,,1.0,,,,,,,,,,,,,,,,,27.5,0.967,,,,,,,,,,,
32,,iti,,html-keyboard-response,32,69229,0.0-1.0-40.0,0,0,63784,,,,,,9.0,,1.0,,,,,,,,,,,,,,,,,29.0,1.5,,,,,,,,,,,
33,,size_choice,,html-keyboard-response,33,70126,0.0-1.0-42.0,0,0,63784,,896.0,,,75.0,10.0,10.0,1.0,1000.0,M-M,,M,M,2.0,2.0,handsaw,ketchup,handsaw4,ketchup9,83.0,98.0,/static/Size_judgement/Stimuli/Size_stims/M/handsaw/handsaw3.jpg,/static/Size_judgement/Stimuli/Size_stims/M/ketchup/ketchup7.jpg,,29.896,0.896,0.0,0.0,ketchup,handsaw,M,M,2.0,2.0,ketchup9,handsaw4,
34,,size_choice_confirmation,,html-keyboard-response,34,70736,0.0-1.0-43.0-0.0,0,0,63784,,,,,,10.0,,1.0,,,,,,,,,,,,,,,,,30.5,0.604,,,,,,,,,,,
35,,iti,,html-keyboard-response,35,71745,0.0-1.0-44.0,0,0,63784,,,,,,10.0,,1.0,,,,,,,,,,,,,,,,,31.5,1.0,,,,,,,,,,,
36,,size_choice,,html-keyboard-response,36,72655,0.0-1.0-46.0,0,0,63784,,908.0,,,75.0,11.0,11.0,1.0,1000.0,M-L,0.0,M,L,2.0,3.0,hairdryer,garbagecan,hairdryer6,garbagecan3,75.0,32.0,/static/Size_judgement/Stimuli/Size_stims/M/hairdryer/hairdryer8.jpg,/static/Size_judgement/Stimuli/Size_stims/L/garbagecan/garbagecan7.jpg,1.0,32.408,0.908,0.0,0.0,garbagecan,hairdryer,L,M,3.0,2.0,garbagecan3,hairdryer6,
37,,size_choice_confirmation,,html-keyboard-response,37,73261,0.0-1.0-47.0-0.0,0,0,63784,,,,,,11.0,,1.0,,,,,,,,,,,,,,,,,33.0,0.592,,,,,,,,,,,
38,,iti,,html-keyboard-response,38,74267,0.0-1.0-48.0,0,0,63784,,,,,,11.0,,1.0,,,,,,,,,,,,,,,,,34.0,1.0,,,,,,,,,,,
39,,size_choice,,html-keyboard-response,39,75297,0.0-1.0-50.0,0,0,63784,,1028.0,,,75.0,12.0,12.0,1.0,2000.0,M-L,0.0,M,L,2.0,3.0,coffeemaker,garbagecan,coffeemaker5,garbagecan4,64.0,33.0,/static/Size_judgement/Stimuli/Size_stims/M/coffeemaker/coffeemaker10.jpg,/static/Size_judgement/Stimuli/Size_stims/L/garbagecan/garbagecan6.jpg,1.0,35.028,1.028,0.0,0.0,garbagecan,coffeemaker,L,M,3.0,2.0,garbagecan4,coffeemaker5,
40,,size_choice_confirmation,,html-keyboard-response,40,75775,0.0-1.0-51.0-0.0,0,0,63784,,,,,,12.0,,1.0,,,,,,,,,,,,,,,,,35.5,0.472,,,,,,,,,,,
41,,iti,,html-keyboard-response,41,77784,0.0-1.0-52.0,0,0,63784,,,,,,12.0,,1.0,,,,,,,,,,,,,,,,,37.5,2.0,,,,,,,,,,,
42,,size_choice,,html-keyboard-response,42,78538,0.0-1.0-54.0,0,0,63784,,752.0,,,75.0,13.0,13.0,1.0,1000.0,S-L,0.0,S,L,1.0,3.0,screws,garbagecan,screws10,garbagecan2,129.0,31.0,/static/Size_judgement/Stimuli/Size_stims/S/screws/screws9.jpg,/static/Size_judgement/Stimuli/Size_stims/L/garbagecan/garbagecan5.jpg,1.0,38.252,0.752,0.0,0.0,garbagecan,screws,L,S,3.0,1.0,garbagecan2,screws10,
43,,size_choice_confirmation,,html-keyboard-response,43,79297,0.0-1.0-55.0-0.0,0,0,63784,,,,,,13.0,,1.0,,,,,,,,,,,,,,,,,39.0,0.748,,,,,,,,,,,
44,,iti,,html-keyboard-response,44,80301,0.0-1.0-56.0,0,0,63784,,,,,,13.0,,1.0,,,,,,,,,,,,,,,,,40.0,1.0,,,,,,,,,,,
45,,size_choice,,html-keyboard-response,45,81010,0.0-1.0-58.0,0,0,63784,,707.0,,,68.0,14.0,14.0,1.0,1000.0,M-XL,1.0,XL,M,4.0,2.0,dumptruck,hairdryer,dumptruck5,hairdryer4,174.0,73.0,/static/Size_judgement/Stimuli/Size_stims/XL/dumptruck/dumptruck3.jpg,/static/Size_judgement/Stimuli/Size_stims/M/hairdryer/hairdryer16.jpg,1.0,40.707,0.707,0.0,1.0,dumptruck,hairdryer,XL,M,4.0,2.0,dumptruck5,hairdryer4,
46,,size_choice_confirmation,,html-keyboard-response,46,81810,0.0-1.0-59.0-0.0,0,0,63784,,,,,,14.0,,1.0,,,,,,,,,,,,,,,,,41.5,0.793,,,,,,,,,,,
47,,iti,,html-keyboard-response,47,82812,0.0-1.0-60.0,0,0,63784,,,,,,14.0,,1.0,,,,,,,,,,,,,,,,,42.5,1.0,,,,,,,,,,,
48,,size_choice,,html-keyboard-response,48,83345,0.0-1.0-62.0,0,0,63784,,531.0,,,68.0,15.0,15.0,1.0,1000.0,S-XL,1.0,XL,S,4.0,1.0,van,screws,van5,screws1,194.0,120.0,/static/Size_judgement/Stimuli/Size_stims/XL/van/van3.jpg,/static/Size_judgement/Stimuli/Size_stims/S/screws/screws4.jpg,1.0,43.031,0.531,0.0,1.0,van,screws,XL,S,4.0,1.0,van5,screws1,
49,,size_choice_confirmation,,html-keyboard-response,49,84319,0.0-1.0-63.0-0.0,0,0,63784,,,,,,15.0,,1.0,,,,,,,,,,,,,,,,,44.0,0.969,,,,,,,,,,,
50,,iti,,html-keyboard-response,50,85323,0.0-1.0-64.0,0,0,63784,,,,,,15.0,,1.0,,,,,,,,,,,,,,,,,45.0,1.0,,,,,,,,,,,
51,,size_choice,,html-keyboard-response,51,85957,0.0-1.0-66.0,0,0,63784,,632.0,,,75.0,16.0,16.0,1.0,3000.0,S-M,0.0,S,M,1.0,2.0,teabag,coffeemaker,teabag9,coffeemaker8,138.0,67.0,/static/Size_judgement/Stimuli/Size_stims/S/teabag/teabag5.jpg,/static/Size_judgement/Stimuli/Size_stims/M/coffeemaker/coffeemaker5.jpg,1.0,45.632,0.632,0.0,0.0,coffeemaker,teabag,M,S,2.0,1.0,coffeemaker8,teabag9,
52,,size_choice_confirmation,,html-keyboard-response,52,86830,0.0-1.0-67.0-0.0,0,0,63784,,,,,,16.0,,1.0,,,,,,,,,,,,,,,,,46.5,0.868,,,,,,,,,,,
53,,iti,,html-keyboard-response,53,89835,0.0-1.0-68.0,0,0,63784,,,,,,16.0,,1.0,,,,,,,,,,,,,,,,,49.5,3.0,,,,,,,,,,,
54,,size_choice,,html-keyboard-response,54,90416,0.0-1.0-70.0,0,0,63784,,579.0,,,68.0,17.0,17.0,1.0,1000.0,M-XL,1.0,XL,M,4.0,2.0,dumptruck,hairdryer,dumptruck10,hairdryer8,179.0,77.0,/static/Size_judgement/Stimuli/Size_stims/XL/dumptruck/dumptruck4.jpg,/static/Size_judgement/Stimuli/Size_stims/M/hairdryer/hairdryer1.jpg,1.0,50.079,0.579,0.0,1.0,dumptruck,hairdryer,XL,M,4.0,2.0,dumptruck10,hairdryer8,
55,,size_choice_confirmation,,html-keyboard-response,55,91341,0.0-1.0-71.0-0.0,0,0,63784,,,,,,17.0,,1.0,,,,,,,,,,,,,,,,,51.0,0.921,,,,,,,,,,,
56,,iti,,html-keyboard-response,56,92351,0.0-1.0-72.0,0,0,63784,,,,,,17.0,,1.0,,,,,,,,,,,,,,,,,52.0,1.0,,,,,,,,,,,
57,,size_choice,,html-keyboard-response,57,92822,0.0-1.0-74.0,0,0,63784,,470.0,,,75.0,18.0,18.0,1.0,1500.0,S-L,0.0,S,L,1.0,3.0,die,mailbox,die10,mailbox10,109.0,49.0,/static/Size_judgement/Stimuli/Size_stims/S/die/die6.jpg,/static/Size_judgement/Stimuli/Size_stims/L/mailbox/mailbox8.jpg,1.0,52.47,0.47,0.0,0.0,mailbox,die,L,S,3.0,1.0,mailbox10,die10,
58,,size_choice_confirmation,,html-keyboard-response,58,93856,0.0-1.0-75.0-0.0,0,0,63784,,,,,,18.0,,1.0,,,,,,,,,,,,,,,,,53.5,1.03,,,,,,,,,,,
59,,iti,,html-keyboard-response,59,95363,0.0-1.0-76.0,0,0,63784,,,,,,18.0,,1.0,,,,,,,,,,,,,,,,,55.0,1.5,,,,,,,,,,,
60,,size_choice,,html-keyboard-response,60,95940,0.0-1.0-78.0,0,0,63784,,577.0,,,68.0,19.0,19.0,1.0,1000.0,S-XL,1.0,XL,S,4.0,1.0,dumptruck,die,dumptruck1,die6,170.0,105.0,/static/Size_judgement/Stimuli/Size_stims/XL/dumptruck/dumptruck9.jpg,/static/Size_judgement/Stimuli/Size_stims/S/die/die1.jpg,1.0,55.577,0.577,0.0,1.0,dumptruck,die,XL,S,4.0,1.0,dumptruck1,die6,
61,,size_choice_confirmation,,html-keyboard-response,61,96867,0.0-1.0-79.0-0.0,0,0,63784,,,,,,19.0,,1.0,,,,,,,,,,,,,,,,,56.5,0.923,,,,,,,,,,,
62,,iti,,html-keyboard-response,62,97874,0.0-1.0-80.0,0,0,63784,,,,,,19.0,,1.0,,,,,,,,,,,,,,,,,57.5,1.0,,,,,,,,,,,
63,,size_choice,,html-keyboard-response,63,98360,0.0-1.0-82.0,0,0,63784,,485.0,,,75.0,20.0,20.0,1.0,1500.0,M-XL,0.0,M,XL,2.0,4.0,basketball,tractor,basketball7,tractor6,56.0,185.0,/static/Size_judgement/Stimuli/Size_stims/M/basketball/basketball6.jpg,/static/Size_judgement/Stimuli/Size_stims/XL/tractor/tractor3.jpg,1.0,57.985,0.485,0.0,0.0,tractor,basketball,XL,M,4.0,2.0,tractor6,basketball7,
64,,size_choice_confirmation,,html-keyboard-response,64,99384,0.0-1.0-83.0-0.0,0,0,63784,,,,,,20.0,,1.0,,,,,,,,,,,,,,,,,59.0,1.015,,,,,,,,,,,
65,,iti,,html-keyboard-response,65,100889,0.0-1.0-84.0,0,0,63784,,,,,,20.0,,1.0,,,,,,,,,,,,,,,,,60.5,1.5,,,,,,,,,,,
66,,size_choice,,html-keyboard-response,66,101607,0.0-1.0-86.0,0,0,63784,,716.0,,,68.0,21.0,21.0,1.0,3000.0,M-M,,M,M,2.0,2.0,handsaw,ketchup,handsaw10,ketchup8,89.0,97.0,/static/Size_judgement/Stimuli/Size_stims/M/handsaw/handsaw10.jpg,/static/Size_judgement/Stimuli/Size_stims/M/ketchup/ketchup5.jpg,,61.216,0.716,0.0,1.0,handsaw,ketchup,M,M,2.0,2.0,handsaw10,ketchup8,
67,,size_choice_confirmation,,html-keyboard-response,67,102401,0.0-1.0-87.0-0.0,0,0,63784,,,,,,21.0,,1.0,,,,,,,,,,,,,,,,,62.0,0.784,,,,,,,,,,,
68,,iti,,html-keyboard-response,68,105410,0.0-1.0-88.0,0,0,63784,,,,,,21.0,,1.0,,,,,,,,,,,,,,,,,65.0,3.0,,,,,,,,,,,
69,,size_choice,,html-keyboard-response,69,106488,0.0-1.0-90.0,0,0,63784,,1078.0,,,68.0,22.0,22.0,1.0,1000.0,S-S,,S,S,1.0,1.0,thread,paperclip,thread7,paperclip1,146.0,110.0,/static/Size_judgement/Stimuli/Size_stims/S/thread/thread3.jpg,/static/Size_judgement/Stimuli/Size_stims/S/paperclip/paperclip9.jpg,,66.078,1.078,0.0,1.0,thread,paperclip,S,S,1.0,1.0,thread7,paperclip1,
70,,size_choice_confirmation,,html-keyboard-response,70,106915,0.0-1.0-91.0-0.0,0,0,63784,,,,,,22.0,,1.0,,,,,,,,,,,,,,,,,66.5,0.422,,,,,,,,,,,
71,,iti,,html-keyboard-response,71,107924,0.0-1.0-92.0,0,0,63784,,,,,,22.0,,1.0,,,,,,,,,,,,,,,,,67.5,1.0,,,,,,,,,,,
72,,size_choice,,html-keyboard-response,72,108531,0.0-1.0-94.0,0,0,63784,,605.0,,,68.0,23.0,23.0,1.0,1500.0,M-XL,1.0,XL,M,4.0,2.0,car,handsaw,car6,handsaw2,155.0,81.0,/static/Size_judgement/Stimuli/Size_stims/XL/car/car12.jpg,/static/Size_judgement/Stimuli/Size_stims/M/handsaw/handsaw9.jpg,1.0,68.105,0.605,0.0,1.0,car,handsaw,XL,M,4.0,2.0,car6,handsaw2,
73,,size_choice_confirmation,,html-keyboard-response,73,109428,0.0-1.0-95.0-0.0,0,0,63784,,,,,,23.0,,1.0,,,,,,,,,,,,,,,,,69.0,0.895,,,,,,,,,,,
74,,iti,,html-keyboard-response,74,110935,0.0-1.0-96.0,0,0,63784,,,,,,23.0,,1.0,,,,,,,,,,,,,,,,,70.5,1.5,,,,,,,,,,,
75,,size_choice,,html-keyboard-response,75,111655,0.0-1.0-98.0,0,0,63784,,718.0,,,75.0,24.0,24.0,1.0,1500.0,S-L,0.0,S,L,1.0,3.0,die,deskchair,die3,deskchair6,102.0,15.0,/static/Size_judgement/Stimuli/Size_stims/S/die/die10.jpg,/static/Size_judgement/Stimuli/Size_stims/L/deskchair/deskchair5.jpg,1.0,71.218,0.718,0.0,0.0,deskchair,die,L,S,3.0,1.0,deskchair6,die3,
76,,size_choice_confirmation,,html-keyboard-response,76,112447,0.0-1.0-99.0-0.0,0,0,63784,,,,,,24.0,,1.0,,,,,,,,,,,,,,,,,72.0,0.782,,,,,,,,,,,
77,,iti,,html-keyboard-response,77,113952,0.0-1.0-100.0,0,0,63784,,,,,,24.0,,1.0,,,,,,,,,,,,,,,,,73.5,1.5,,,,,,,,,,,
78,,size_choice,,html-keyboard-response,78,114936,0.0-1.0-102.0,0,0,63784,,983.0,,,75.0,25.0,25.0,1.0,1500.0,S-S,,S,S,1.0,1.0,paperclip,die,paperclip9,die1,118.0,100.0,/static/Size_judgement/Stimuli/Size_stims/S/paperclip/paperclip4.jpg,/static/Size_judgement/Stimuli/Size_stims/S/die/die8.jpg,,74.483,0.983,0.0,0.0,die,paperclip,S,S,1.0,1.0,die1,paperclip9,
79,,size_choice_confirmation,,html-keyboard-response,79,115457,0.0-1.0-103.0-0.0,0,0,63784,,,,,,25.0,,1.0,,,,,,,,,,,,,,,,,75.0,0.517,,,,,,,,,,,
80,,iti,,html-keyboard-response,80,116963,0.0-1.0-104.0,0,0,63784,,,,,,25.0,,1.0,,,,,,,,,,,,,,,,,76.5,1.5,,,,,,,,,,,
81,,size_choice,,html-keyboard-response,81,118016,0.0-1.0-106.0,0,0,63784,,1052.0,,,75.0,26.0,26.0,1.0,2000.0,M-L,0.0,M,L,2.0,3.0,basketball,deskchair,basketball4,deskchair9,53.0,18.0,/static/Size_judgement/Stimuli/Size_stims/M/basketball/basketball1.jpg,/static/Size_judgement/Stimuli/Size_stims/L/deskchair/deskchair3.jpg,1.0,77.552,1.052,0.0,0.0,deskchair,basketball,L,M,3.0,2.0,deskchair9,basketball4,
82,,size_choice_confirmation,,html-keyboard-response,82,118474,0.0-1.0-107.0-0.0,0,0,63784,,,,,,26.0,,1.0,,,,,,,,,,,,,,,,,78.0,0.448,,,,,,,,,,,
83,,iti,,html-keyboard-response,83,120486,0.0-1.0-108.0,0,0,63784,,,,,,26.0,,1.0,,,,,,,,,,,,,,,,,80.0,2.0,,,,,,,,,,,
84,,size_choice,,html-keyboard-response,84,121054,0.0-1.0-110.0,0,0,63784,,567.0,,,75.0,27.0,27.0,1.0,1500.0,S-XL,0.0,S,XL,1.0,4.0,screws,crane,screws6,crane6,125.0,165.0,/static/Size_judgement/Stimuli/Size_stims/S/screws/screws3.jpg,/static/Size_judgement/Stimuli/Size_stims/XL/crane/crane2.jpg,1.0,80.567,0.567,0.0,0.0,crane,screws,XL,S,4.0,1.0,crane6,screws6,
85,,size_choice_confirmation,,html-keyboard-response,85,121990,0.0-1.0-111.0-0.0,0,0,63784,,,,,,27.0,,1.0,,,,,,,,,,,,,,,,,81.5,0.933,,,,,,,,,,,
86,,iti,,html-keyboard-response,86,123496,0.0-1.0-112.0,0,0,63784,,,,,,27.0,,1.0,,,,,,,,,,,,,,,,,83.0,1.5,,,,,,,,,,,
87,,size_choice,,html-keyboard-response,87,124755,0.0-1.0-114.0,0,0,63784,,1257.0,,,75.0,28.0,28.0,1.0,3000.0,M-L,0.0,M,L,2.0,3.0,coffeemaker,dishwasher,coffeemaker1,dishwasher7,60.0,26.0,/static/Size_judgement/Stimuli/Size_stims/M/coffeemaker/coffeemaker14.jpg,/static/Size_judgement/Stimuli/Size_stims/L/dishwasher/dishwasher7.jpg,1.0,84.257,1.257,0.0,0.0,dishwasher,coffeemaker,L,M,3.0,2.0,dishwasher7,coffeemaker1,
88,,size_choice_confirmation,,html-keyboard-response,88,125002,0.0-1.0-115.0-0.0,0,0,63784,,,,,,28.0,,1.0,,,,,,,,,,,,,,,,,84.5,0.243,,,,,,,,,,,
89,,iti,,html-keyboard-response,89,128005,0.0-1.0-116.0,0,0,63784,,,,,,28.0,,1.0,,,,,,,,,,,,,,,,,87.5,3.0,,,,,,,,,,,
90,,size_choice,,html-keyboard-response,90,128907,0.0-1.0-118.0,0,0,63784,,900.0,,,75.0,29.0,29.0,1.0,2000.0,L-XL,0.0,L,XL,3.0,4.0,mailbox,tractor,mailbox6,tractor2,45.0,181.0,/static/Size_judgement/Stimuli/Size_stims/L/mailbox/mailbox6.jpg,/static/Size_judgement/Stimuli/Size_stims/XL/tractor/tractor7.jpg,1.0,88.4,0.9,0.0,0.0,tractor,mailbox,XL,L,4.0,3.0,tractor2,mailbox6,
91,,size_choice_confirmation,,html-keyboard-response,91,129515,0.0-1.0-119.0-0.0,0,0,63784,,,,,,29.0,,1.0,,,,,,,,,,,,,,,,,89.0,0.6,,,,,,,,,,,
92,,iti,,html-keyboard-response,92,131532,0.0-1.0-120.0,0,0,63784,,,,,,29.0,,1.0,,,,,,,,,,,,,,,,,91.0,2.0,,,,,,,,,,,
93,,size_choice,,html-keyboard-response,93,132049,0.0-1.0-122.0,0,0,63784,,515.0,,,75.0,30.0,30.0,1.0,1500.0,S-XL,0.0,S,XL,1.0,4.0,teabag,crane,teabag5,crane7,134.0,166.0,/static/Size_judgement/Stimuli/Size_stims/S/teabag/teabag2.jpg,/static/Size_judgement/Stimuli/Size_stims/XL/crane/crane3.jpg,1.0,91.515,0.515,0.0,0.0,crane,teabag,XL,S,4.0,1.0,crane7,teabag5,
94,,size_choice_confirmation,,html-keyboard-response,94,133040,0.0-1.0-123.0-0.0,0,0,63784,,,,,,30.0,,1.0,,,,,,,,,,,,,,,,,92.5,0.985,,,,,,,,,,,
95,,iti,,html-keyboard-response,95,134550,0.0-1.0-124.0,0,0,63784,,,,,,30.0,,1.0,,,,,,,,,,,,,,,,,94.0,1.5,,,,,,,,,,,
96,,size_choice,,html-keyboard-response,96,135232,0.0-1.0-126.0,0,0,63784,,679.0,,,75.0,31.0,31.0,1.0,3500.0,M-L,0.0,M,L,2.0,3.0,coffeemaker,cooler,coffeemaker4,cooler10,63.0,9.0,/static/Size_judgement/Stimuli/Size_stims/M/coffeemaker/coffeemaker11.jpg,/static/Size_judgement/Stimuli/Size_stims/L/cooler/cooler6.jpg,1.0,94.679,0.679,0.0,0.0,cooler,coffeemaker,L,M,3.0,2.0,cooler10,coffeemaker4,
97,,size_choice_confirmation,,html-keyboard-response,97,136057,0.0-1.0-127.0-0.0,0,0,63784,,,,,,31.0,,1.0,,,,,,,,,,,,,,,,,95.5,0.821,,,,,,,,,,,
98,,iti,,html-keyboard-response,98,139565,0.0-1.0-128.0,0,0,63784,,,,,,31.0,,1.0,,,,,,,,,,,,,,,,,99.0,3.5,,,,,,,,,,,
99,,size_choice,,html-keyboard-response,99,140134,0.0-1.0-130.0,0,0,63784,,567.0,,,75.0,32.0,32.0,1.0,3000.0,S-XL,0.0,S,XL,1.0,4.0,paperclip,car,paperclip4,car1,113.0,150.0,/static/Size_judgement/Stimuli/Size_stims/S/paperclip/paperclip3.jpg,/static/Size_judgement/Stimuli/Size_stims/XL/car/car2.jpg,1.0,99.567,0.567,0.0,0.0,car,paperclip,XL,S,4.0,1.0,car1,paperclip4,
100,,size_choice_confirmation,,html-keyboard-response,100,141075,0.0-1.0-131.0-0.0,0,0,63784,,,,,,32.0,,1.0,,,,,,,,,,,,,,,,,100.5,0.933,,,,,,,,,,,
101,,iti,,html-keyboard-response,101,144083,0.0-1.0-132.0,0,0,63784,,,,,,32.0,,1.0,,,,,,,,,,,,,,,,,103.5,3.0,,,,,,,,,,,
102,,size_choice,,html-keyboard-response,102,145432,0.0-1.0-134.0,0,0,63784,,1347.0,,,68.0,33.0,33.0,1.0,1000.0,M-M,,M,M,2.0,2.0,ketchup,hairdryer,ketchup3,hairdryer2,92.0,71.0,/static/Size_judgement/Stimuli/Size_stims/M/ketchup/ketchup10.jpg,/static/Size_judgement/Stimuli/Size_stims/M/hairdryer/hairdryer12.jpg,,104.847,1.347,0.0,1.0,ketchup,hairdryer,M,M,2.0,2.0,ketchup3,hairdryer2,
103,,size_choice_confirmation,,html-keyboard-response,103,145587,0.0-1.0-135.0-0.0,0,0,63784,,,,,,33.0,,1.0,,,,,,,,,,,,,,,,,105.0,0.153,,,,,,,,,,,
104,,iti,,html-keyboard-response,104,146589,0.0-1.0-136.0,0,0,63784,,,,,,33.0,,1.0,,,,,,,,,,,,,,,,,106.0,1.0,,,,,,,,,,,
105,,size_choice,,html-keyboard-response,105,147682,0.0-1.0-138.0,0,0,63784,,1091.0,,,68.0,34.0,34.0,1.0,2000.0,S-S,,S,S,1.0,1.0,teabag,screws,teabag4,screws4,133.0,123.0,/static/Size_judgement/Stimuli/Size_stims/S/teabag/teabag3.jpg,/static/Size_judgement/Stimuli/Size_stims/S/screws/screws6.jpg,,107.091,1.091,0.0,1.0,teabag,screws,S,S,1.0,1.0,teabag4,screws4,
106,,size_choice_confirmation,,html-keyboard-response,106,148098,0.0-1.0-139.0-0.0,0,0,63784,,,,,,34.0,,1.0,,,,,,,,,,,,,,,,,107.5,0.409,,,,,,,,,,,
107,,iti,,html-keyboard-response,107,150112,0.0-1.0-140.0,0,0,63784,,,,,,34.0,,1.0,,,,,,,,,,,,,,,,,109.5,2.0,,,,,,,,,,,
108,,size_choice,,html-keyboard-response,108,150982,0.0-1.0-142.0,0,0,63784,,865.0,,,75.0,35.0,35.0,1.0,1000.0,M-L,0.0,M,L,2.0,3.0,basketball,dishwasher,basketball6,dishwasher1,55.0,20.0,/static/Size_judgement/Stimuli/Size_stims/M/basketball/basketball2.jpg,/static/Size_judgement/Stimuli/Size_stims/L/dishwasher/dishwasher10.jpg,1.0,110.365,0.865,0.0,0.0,dishwasher,basketball,L,M,3.0,2.0,dishwasher1,basketball6,
109,,size_choice_confirmation,,html-keyboard-response,109,151625,0.0-1.0-143.0-0.0,0,0,63784,,,,,,35.0,,1.0,,,,,,,,,,,,,,,,,111.0,0.635,,,,,,,,,,,
110,,iti,,html-keyboard-response,110,152629,0.0-1.0-144.0,0,0,63784,,,,,,35.0,,1.0,,,,,,,,,,,,,,,,,112.0,1.0,,,,,,,,,,,
111,,size_choice,,html-keyboard-response,111,153168,0.0-1.0-146.0,0,0,63784,,537.0,,,68.0,36.0,36.0,1.0,1500.0,M-XL,1.0,XL,M,4.0,2.0,tractor,ketchup,tractor10,ketchup6,189.0,95.0,/static/Size_judgement/Stimuli/Size_stims/XL/tractor/tractor8.jpg,/static/Size_judgement/Stimuli/Size_stims/M/ketchup/ketchup1.jpg,1.0,112.537,0.537,0.0,1.0,tractor,ketchup,XL,M,4.0,2.0,tractor10,ketchup6,
112,,size_choice_confirmation,,html-keyboard-response,112,154132,0.0-1.0-147.0-0.0,0,0,63784,,,,,,36.0,,1.0,,,,,,,,,,,,,,,,,113.5,0.963,,,,,,,,,,,
113,,iti,,html-keyboard-response,113,155635,0.0-1.0-148.0,0,0,63784,,,,,,36.0,,1.0,,,,,,,,,,,,,,,,,115.0,1.5,,,,,,,,,,,
114,,size_choice,,html-keyboard-response,114,156231,0.0-1.0-150.0,0,0,63784,,593.0,,,75.0,37.0,37.0,1.0,3500.0,XL-XL,,XL,XL,4.0,4.0,crane,car,crane10,car8,169.0,157.0,/static/Size_judgement/Stimuli/Size_stims/XL/crane/crane9.jpg,/static/Size_judgement/Stimuli/Size_stims/XL/car/car14.jpg,,115.593,0.593,0.0,0.0,car,crane,XL,XL,4.0,4.0,car8,crane10,
115,,size_choice_confirmation,,html-keyboard-response,115,157147,0.0-1.0-151.0-0.0,0,0,63784,,,,,,37.0,,1.0,,,,,,,,,,,,,,,,,116.5,0.907,,,,,,,,,,,
116,,iti,,html-keyboard-response,116,160664,0.0-1.0-152.0,0,0,63784,,,,,,37.0,,1.0,,,,,,,,,,,,,,,,,120.0,3.5,,,,,,,,,,,
117,,size_choice,,html-keyboard-response,117,161922,0.0-1.0-154.0,0,0,63784,,1256.0,,,68.0,38.0,38.0,1.0,1500.0,L-L,,L,L,3.0,3.0,dishwasher,garbagecan,dishwasher5,garbagecan5,24.0,34.0,/static/Size_judgement/Stimuli/Size_stims/L/dishwasher/dishwasher4.jpg,/static/Size_judgement/Stimuli/Size_stims/L/garbagecan/garbagecan3.jpg,,121.256,1.256,0.0,1.0,dishwasher,garbagecan,L,L,3.0,3.0,dishwasher5,garbagecan5,
118,,size_choice_confirmation,,html-keyboard-response,118,162168,0.0-1.0-155.0-0.0,0,0,63784,,,,,,38.0,,1.0,,,,,,,,,,,,,,,,,121.5,0.244,,,,,,,,,,,
119,,iti,,html-keyboard-response,119,163675,0.0-1.0-156.0,0,0,63784,,,,,,38.0,,1.0,,,,,,,,,,,,,,,,,123.0,1.5,,,,,,,,,,,
120,,size_choice,,html-keyboard-response,120,164606,0.0-1.0-158.0,0,0,63784,,929.0,,,68.0,39.0,39.0,1.0,2000.0,L-L,,L,L,3.0,3.0,dishwasher,cooler,dishwasher10,cooler6,29.0,5.0,/static/Size_judgement/Stimuli/Size_stims/L/dishwasher/dishwasher1.jpg,/static/Size_judgement/Stimuli/Size_stims/L/cooler/cooler1.jpg,,123.929,0.929,0.0,1.0,dishwasher,cooler,L,L,3.0,3.0,dishwasher10,cooler6,
121,,size_choice_confirmation,,html-keyboard-response,121,165194,0.0-1.0-159.0-0.0,0,0,63784,,,,,,39.0,,1.0,,,,,,,,,,,,,,,,,124.5,0.571,,,,,,,,,,,
122,,iti,,html-keyboard-response,122,167198,0.0-1.0-160.0,0,0,63784,,,,,,39.0,,1.0,,,,,,,,,,,,,,,,,126.5,2.0,,,,,,,,,,,
123,,size_choice,,html-keyboard-response,123,168122,0.0-1.0-162.0,0,0,63784,,921.0,,,75.0,40.0,40.0,1.0,1500.0,S-M,0.0,S,M,1.0,2.0,screws,handsaw,screws3,handsaw3,122.0,82.0,/static/Size_judgement/Stimuli/Size_stims/S/screws/screws7.jpg,/static/Size_judgement/Stimuli/Size_stims/M/handsaw/handsaw2.jpg,1.0,127.421,0.921,0.0,0.0,handsaw,screws,M,S,2.0,1.0,handsaw3,screws3,
124,,size_choice_confirmation,,html-keyboard-response,124,168705,0.0-1.0-163.0-0.0,0,0,63784,,,,,,40.0,,1.0,,,,,,,,,,,,,,,,,128.0,0.579,,,,,,,,,,,
125,,iti,,html-keyboard-response,125,170214,0.0-1.0-164.0,0,0,63784,,,,,,40.0,,1.0,,,,,,,,,,,,,,,,,129.5,1.5,,,,,,,,,,,
126,,size_choice,,html-keyboard-response,126,170942,0.0-1.0-166.0,0,0,63784,,725.0,,,68.0,41.0,41.0,1.0,3500.0,S-L,1.0,L,S,3.0,1.0,deskchair,thread,deskchair5,thread6,14.0,145.0,/static/Size_judgement/Stimuli/Size_stims/L/deskchair/deskchair7.jpg,/static/Size_judgement/Stimuli/Size_stims/S/thread/thread2.jpg,1.0,130.225,0.725,0.0,1.0,deskchair,thread,L,S,3.0,1.0,deskchair5,thread6,
127,,size_choice_confirmation,,html-keyboard-response,127,171721,0.0-1.0-167.0-0.0,0,0,63784,,,,,,41.0,,1.0,,,,,,,,,,,,,,,,,131.0,0.775,,,,,,,,,,,
128,,iti,,html-keyboard-response,128,175227,0.0-1.0-168.0,0,0,63784,,,,,,41.0,,1.0,,,,,,,,,,,,,,,,,134.5,3.5,,,,,,,,,,,
129,,size_choice,,html-keyboard-response,129,175790,0.0-1.0-170.0,0,0,63784,,560.0,,,75.0,42.0,42.0,1.0,1000.0,S-M,0.0,S,M,1.0,2.0,paperclip,basketball,paperclip7,basketball8,116.0,57.0,/static/Size_judgement/Stimuli/Size_stims/S/paperclip/paperclip7.jpg,/static/Size_judgement/Stimuli/Size_stims/M/basketball/basketball7.jpg,1.0,135.06,0.56,0.0,0.0,basketball,paperclip,M,S,2.0,1.0,basketball8,paperclip7,
130,,size_choice_confirmation,,html-keyboard-response,130,176735,0.0-1.0-171.0-0.0,0,0,63784,,,,,,42.0,,1.0,,,,,,,,,,,,,,,,,136.0,0.94,,,,,,,,,,,
131,,iti,,html-keyboard-response,131,177742,0.0-1.0-172.0,0,0,63784,,,,,,42.0,,1.0,,,,,,,,,,,,,,,,,137.0,1.0,,,,,,,,,,,
132,,size_choice,,html-keyboard-response,132,178292,0.0-1.0-174.0,0,0,63784,,548.0,,,68.0,43.0,43.0,1.0,1000.0,S-L,1.0,L,S,3.0,1.0,deskchair,paperclip,deskchair1,paperclip5,10.0,114.0,/static/Size_judgement/Stimuli/Size_stims/L/deskchair/deskchair9.jpg,/static/Size_judgement/Stimuli/Size_stims/S/paperclip/paperclip2.jpg,1.0,137.548,0.548,0.0,1.0,deskchair,paperclip,L,S,3.0,1.0,deskchair1,paperclip5,
133,,size_choice_confirmation,,html-keyboard-response,133,179261,0.0-1.0-175.0-0.0,0,0,63784,,,,,,43.0,,1.0,,,,,,,,,,,,,,,,,138.5,0.952,,,,,,,,,,,
134,,iti,,html-keyboard-response,134,180264,0.0-1.0-176.0,0,0,63784,,,,,,43.0,,1.0,,,,,,,,,,,,,,,,,139.5,1.0,,,,,,,,,,,
135,,size_choice,,html-keyboard-response,135,181117,0.0-1.0-178.0,0,0,63784,,850.0,,,75.0,44.0,44.0,1.0,1000.0,L-XL,0.0,L,XL,3.0,4.0,dishwasher,van,dishwasher2,van9,21.0,198.0,/static/Size_judgement/Stimuli/Size_stims/L/dishwasher/dishwasher9.jpg,/static/Size_judgement/Stimuli/Size_stims/XL/van/van9.jpg,1.0,140.35,0.85,0.0,0.0,van,dishwasher,XL,L,4.0,3.0,van9,dishwasher2,
136,,size_choice_confirmation,,html-keyboard-response,136,181770,0.0-1.0-179.0-0.0,0,0,63784,,,,,,44.0,,1.0,,,,,,,,,,,,,,,,,141.0,0.65,,,,,,,,,,,
137,,iti,,html-keyboard-response,137,182775,0.0-1.0-180.0,0,0,63784,,,,,,44.0,,1.0,,,,,,,,,,,,,,,,,142.0,1.0,,,,,,,,,,,
138,,block_over,,html-keyboard-response,138,184557,0.0-1.0-181.0-0.0,0,0,63784,,1779.0,,,68.0,44.0,,,,,,,,,,,,,,,,,,,,,,,,,,,,,,,
139,,size_choice,,html-keyboard-response,139,185195,0.0-1.0-182.0,0,0,63784,,637.0,,,75.0,45.0,45.0,2.0,2000.0,S-L,0.0,S,L,1.0,3.0,die,mailbox,die5,mailbox2,104.0,41.0,/static/Size_judgement/Stimuli/Size_stims/S/die/die3.jpg,/static/Size_judgement/Stimuli/Size_stims/L/mailbox/mailbox2.jpg,1.0,142.637,0.637,0.0,0.0,mailbox,die,L,S,3.0,1.0,mailbox2,die5,
140,,size_choice_confirmation,,html-keyboard-response,140,186063,0.0-1.0-183.0-0.0,0,0,63784,,,,,,45.0,,2.0,,,,,,,,,,,,,,,,,143.5,0.863,,,,,,,,,,,
141,,iti,,html-keyboard-response,141,188072,0.0-1.0-184.0,0,0,63784,,,,,,45.0,,2.0,,,,,,,,,,,,,,,,,145.5,2.0,,,,,,,,,,,
142,,size_choice,,html-keyboard-response,142,188968,0.0-1.0-186.0,0,0,63784,,894.0,,,68.0,46.0,46.0,2.0,1000.0,S-L,1.0,L,S,3.0,1.0,deskchair,thread,deskchair3,thread10,12.0,149.0,/static/Size_judgement/Stimuli/Size_stims/L/deskchair/deskchair10.jpg,/static/Size_judgement/Stimuli/Size_stims/S/thread/thread9.jpg,1.0,146.394,0.894,0.0,1.0,deskchair,thread,L,S,3.0,1.0,deskchair3,thread10,
143,,size_choice_confirmation,,html-keyboard-response,143,189575,0.0-1.0-187.0-0.0,0,0,63784,,,,,,46.0,,2.0,,,,,,,,,,,,,,,,,147.0,0.606,,,,,,,,,,,
144,,iti,,html-keyboard-response,144,190580,0.0-1.0-188.0,0,0,63784,,,,,,46.0,,2.0,,,,,,,,,,,,,,,,,148.0,1.0,,,,,,,,,,,
145,,size_choice,,html-keyboard-response,145,191236,0.0-1.0-190.0,0,0,63784,,655.0,,,68.0,47.0,47.0,2.0,3500.0,M-L,1.0,L,M,3.0,2.0,garbagecan,handsaw,garbagecan1,handsaw9,30.0,88.0,/static/Size_judgement/Stimuli/Size_stims/L/garbagecan/garbagecan4.jpg,/static/Size_judgement/Stimuli/Size_stims/M/handsaw/handsaw6.jpg,1.0,148.655,0.655,0.0,1.0,garbagecan,handsaw,L,M,3.0,2.0,garbagecan1,handsaw9,
146,,size_choice_confirmation,,html-keyboard-response,146,192090,0.0-1.0-191.0-0.0,0,0,63784,,,,,,47.0,,2.0,,,,,,,,,,,,,,,,,149.5,0.845,,,,,,,,,,,
147,,iti,,html-keyboard-response,147,195597,0.0-1.0-192.0,0,0,63784,,,,,,47.0,,2.0,,,,,,,,,,,,,,,,,153.0,3.5,,,,,,,,,,,
148,,size_choice,,html-keyboard-response,148,196575,0.0-1.0-194.0,0,0,63784,,976.0,,,68.0,48.0,48.0,2.0,1000.0,M-M,,M,M,2.0,2.0,coffeemaker,hairdryer,coffeemaker7,hairdryer5,66.0,74.0,/static/Size_judgement/Stimuli/Size_stims/M/coffeemaker/coffeemaker9.jpg,/static/Size_judgement/Stimuli/Size_stims/M/hairdryer/hairdryer15.jpg,,153.976,0.976,0.0,1.0,coffeemaker,hairdryer,M,M,2.0,2.0,coffeemaker7,hairdryer5,
149,,size_choice_confirmation,,html-keyboard-response,149,197103,0.0-1.0-195.0-0.0,0,0,63784,,,,,,48.0,,2.0,,,,,,,,,,,,,,,,,154.5,0.524,,,,,,,,,,,
150,,iti,,html-keyboard-response,150,198111,0.0-1.0-196.0,0,0,63784,,,,,,48.0,,2.0,,,,,,,,,,,,,,,,,155.5,1.0,,,,,,,,,,,
151,,size_choice,,html-keyboard-response,151,198755,0.0-1.0-198.0,0,0,63784,,642.0,,,68.0,49.0,49.0,2.0,2000.0,S-XL,1.0,XL,S,4.0,1.0,crane,thread,crane3,thread4,162.0,143.0,/static/Size_judgement/Stimuli/Size_stims/XL/crane/crane4.jpg,/static/Size_judgement/Stimuli/Size_stims/S/thread/thread5.jpg,1.0,156.142,0.642,0.0,1.0,crane,thread,XL,S,4.0,1.0,crane3,thread4,
152,,size_choice_confirmation,,html-keyboard-response,152,199616,0.0-1.0-199.0-0.0,0,0,63784,,,,,,49.0,,2.0,,,,,,,,,,,,,,,,,157.0,0.858,,,,,,,,,,,
153,,iti,,html-keyboard-response,153,201623,0.0-1.0-200.0,0,0,63784,,,,,,49.0,,2.0,,,,,,,,,,,,,,,,,159.0,2.0,,,,,,,,,,,
154,,size_choice,,html-keyboard-response,154,202192,0.0-1.0-202.0,0,0,63784,,567.0,,,68.0,50.0,50.0,2.0,1000.0,S-XL,1.0,XL,S,4.0,1.0,tractor,die,tractor7,die9,186.0,108.0,/static/Size_judgement/Stimuli/Size_stims/XL/tractor/tractor2.jpg,/static/Size_judgement/Stimuli/Size_stims/S/die/die7.jpg,1.0,159.567,0.567,0.0,1.0,tractor,die,XL,S,4.0,1.0,tractor7,die9,
155,,size_choice_confirmation,,html-keyboard-response,155,203133,0.0-1.0-203.0-0.0,0,0,63784,,,,,,50.0,,2.0,,,,,,,,,,,,,,,,,160.5,0.933,,,,,,,,,,,
156,,iti,,html-keyboard-response,156,204140,0.0-1.0-204.0,0,0,63784,,,,,,50.0,,2.0,,,,,,,,,,,,,,,,,161.5,1.0,,,,,,,,,,,
157,,size_choice,,html-keyboard-response,157,204830,0.0-1.0-206.0,0,0,63784,,689.0,,,68.0,51.0,51.0,2.0,2000.0,S-L,1.0,L,S,3.0,1.0,cooler,thread,cooler1,thread2,0.0,141.0,/static/Size_judgement/Stimuli/Size_stims/L/cooler/cooler8.jpg,/static/Size_judgement/Stimuli/Size_stims/S/thread/thread6.jpg,1.0,162.189,0.689,0.0,1.0,cooler,thread,L,S,3.0,1.0,cooler1,thread2,
158,,size_choice_confirmation,,html-keyboard-response,158,205644,0.0-1.0-207.0-0.0,0,0,63784,,,,,,51.0,,2.0,,,,,,,,,,,,,,,,,163.0,0.811,,,,,,,,,,,
159,,iti,,html-keyboard-response,159,207654,0.0-1.0-208.0,0,0,63784,,,,,,51.0,,2.0,,,,,,,,,,,,,,,,,165.0,2.0,,,,,,,,,,,
160,,size_choice,,html-keyboard-response,160,208143,0.0-1.0-210.0,0,0,63784,,487.0,,,75.0,52.0,52.0,2.0,1000.0,M-L,0.0,M,L,2.0,3.0,handsaw,mailbox,handsaw8,mailbox4,87.0,43.0,/static/Size_judgement/Stimuli/Size_stims/M/handsaw/handsaw7.jpg,/static/Size_judgement/Stimuli/Size_stims/L/mailbox/mailbox5.jpg,1.0,165.487,0.487,0.0,0.0,mailbox,handsaw,L,M,3.0,2.0,mailbox4,handsaw8,
161,,size_choice_confirmation,,html-keyboard-response,161,209166,0.0-1.0-211.0-0.0,0,0,63784,,,,,,52.0,,2.0,,,,,,,,,,,,,,,,,166.5,1.013,,,,,,,,,,,
162,,iti,,html-keyboard-response,162,210174,0.0-1.0-212.0,0,0,63784,,,,,,52.0,,2.0,,,,,,,,,,,,,,,,,167.5,1.0,,,,,,,,,,,
163,,size_choice,,html-keyboard-response,163,210739,0.0-1.0-214.0,0,0,63784,,563.0,,,68.0,53.0,53.0,2.0,1000.0,S-XL,1.0,XL,S,4.0,1.0,crane,thread,crane9,thread5,168.0,144.0,/static/Size_judgement/Stimuli/Size_stims/XL/crane/crane8.jpg,/static/Size_judgement/Stimuli/Size_stims/S/thread/thread1.jpg,1.0,168.063,0.563,0.0,1.0,crane,thread,XL,S,4.0,1.0,crane9,thread5,
164,,size_choice_confirmation,,html-keyboard-response,164,211680,0.0-1.0-215.0-0.0,0,0,63784,,,,,,53.0,,2.0,,,,,,,,,,,,,,,,,169.0,0.937,,,,,,,,,,,
165,,iti,,html-keyboard-response,165,212683,0.0-1.0-216.0,0,0,63784,,,,,,53.0,,2.0,,,,,,,,,,,,,,,,,170.0,1.0,,,,,,,,,,,
166,,size_choice,,html-keyboard-response,166,213398,0.0-1.0-218.0,0,0,63784,,714.0,,,68.0,54.0,54.0,2.0,2000.0,XL-XL,,XL,XL,4.0,4.0,tractor,van,tractor1,van10,180.0,199.0,/static/Size_judgement/Stimuli/Size_stims/XL/tractor/tractor6.jpg,/static/Size_judgement/Stimuli/Size_stims/XL/van/van8.jpg,,170.714,0.714,0.0,1.0,tractor,van,XL,XL,4.0,4.0,tractor1,van10,
167,,size_choice_confirmation,,html-keyboard-response,167,214185,0.0-1.0-219.0-0.0,0,0,63784,,,,,,54.0,,2.0,,,,,,,,,,,,,,,,,171.5,0.786,,,,,,,,,,,
168,,iti,,html-keyboard-response,168,216189,0.0-1.0-220.0,0,0,63784,,,,,,54.0,,2.0,,,,,,,,,,,,,,,,,173.5,2.0,,,,,,,,,,,
169,,size_choice,,html-keyboard-response,169,217166,0.0-1.0-222.0,0,0,63784,,975.0,,,75.0,55.0,55.0,2.0,1500.0,S-S,,S,S,1.0,1.0,paperclip,teabag,paperclip8,teabag2,117.0,131.0,/static/Size_judgement/Stimuli/Size_stims/S/paperclip/paperclip5.jpg,/static/Size_judgement/Stimuli/Size_stims/S/teabag/teabag8.jpg,,174.475,0.975,0.0,0.0,teabag,paperclip,S,S,1.0,1.0,teabag2,paperclip8,
170,,size_choice_confirmation,,html-keyboard-response,170,217695,0.0-1.0-223.0-0.0,0,0,63784,,,,,,55.0,,2.0,,,,,,,,,,,,,,,,,175.0,0.525,,,,,,,,,,,
171,,iti,,html-keyboard-response,171,219200,0.0-1.0-224.0,0,0,63784,,,,,,55.0,,2.0,,,,,,,,,,,,,,,,,176.5,1.5,,,,,,,,,,,
172,,size_choice,,html-keyboard-response,172,219769,0.0-1.0-226.0,0,0,63784,,568.0,,,68.0,56.0,56.0,2.0,1500.0,S-XL,1.0,XL,S,4.0,1.0,crane,screws,crane8,screws2,167.0,121.0,/static/Size_judgement/Stimuli/Size_stims/XL/crane/crane10.jpg,/static/Size_judgement/Stimuli/Size_stims/S/screws/screws5.jpg,1.0,177.068,0.568,0.0,1.0,crane,screws,XL,S,4.0,1.0,crane8,screws2,
173,,size_choice_confirmation,,html-keyboard-response,173,220709,0.0-1.0-227.0-0.0,0,0,63784,,,,,,56.0,,2.0,,,,,,,,,,,,,,,,,178.0,0.932,,,,,,,,,,,
174,,iti,,html-keyboard-response,174,222211,0.0-1.0-228.0,0,0,63784,,,,,,56.0,,2.0,,,,,,,,,,,,,,,,,179.5,1.5,,,,,,,,,,,
175,,size_choice,,html-keyboard-response,175,223127,0.0-1.0-230.0,0,0,63784,,916.0,,,68.0,57.0,57.0,2.0,1000.0,L-L,,L,L,3.0,3.0,dishwasher,cooler,dishwasher4,cooler3,23.0,2.0,/static/Size_judgement/Stimuli/Size_stims/L/dishwasher/dishwasher5.jpg,/static/Size_judgement/Stimuli/Size_stims/L/cooler/cooler2.jpg,,180.416,0.916,0.0,1.0,dishwasher,cooler,L,L,3.0,3.0,dishwasher4,cooler3,
176,,size_choice_confirmation,,html-keyboard-response,176,223716,0.0-1.0-231.0-0.0,0,0,63784,,,,,,57.0,,2.0,,,,,,,,,,,,,,,,,181.0,0.584,,,,,,,,,,,
177,,iti,,html-keyboard-response,177,224722,0.0-1.0-232.0,0,0,63784,,,,,,57.0,,2.0,,,,,,,,,,,,,,,,,182.0,1.0,,,,,,,,,,,
178,,size_choice,,html-keyboard-response,178,225426,0.0-1.0-234.0,0,0,63784,,703.0,,,75.0,58.0,58.0,2.0,3000.0,M-XL,0.0,M,XL,2.0,4.0,coffeemaker,van,coffeemaker9,van4,68.0,193.0,/static/Size_judgement/Stimuli/Size_stims/M/coffeemaker/coffeemaker7.jpg,/static/Size_judgement/Stimuli/Size_stims/XL/van/van7.jpg,1.0,182.703,0.703,0.0,0.0,van,coffeemaker,XL,M,4.0,2.0,van4,coffeemaker9,
179,,size_choice_confirmation,,html-keyboard-response,179,226231,0.0-1.0-235.0-0.0,0,0,63784,,,,,,58.0,,2.0,,,,,,,,,,,,,,,,,183.5,0.797,,,,,,,,,,,
180,,iti,,html-keyboard-response,180,229237,0.0-1.0-236.0,0,0,63784,,,,,,58.0,,2.0,,,,,,,,,,,,,,,,,186.5,3.0,,,,,,,,,,,
181,,size_choice,,html-keyboard-response,181,230065,0.0-1.0-238.0,0,0,63784,,825.0,,,75.0,59.0,59.0,2.0,2000.0,M-L,0.0,M,L,2.0,3.0,coffeemaker,cooler,coffeemaker3,cooler7,62.0,6.0,/static/Size_judgement/Stimuli/Size_stims/M/coffeemaker/coffeemaker13.jpg,/static/Size_judgement/Stimuli/Size_stims/L/cooler/cooler4.jpg,1.0,187.325,0.825,0.0,0.0,cooler,coffeemaker,L,M,3.0,2.0,cooler7,coffeemaker3,
182,,size_choice_confirmation,,html-keyboard-response,182,230751,0.0-1.0-239.0-0.0,0,0,63784,,,,,,59.0,,2.0,,,,,,,,,,,,,,,,,188.0,0.675,,,,,,,,,,,
183,,iti,,html-keyboard-response,183,232757,0.0-1.0-240.0,0,0,63784,,,,,,59.0,,2.0,,,,,,,,,,,,,,,,,190.0,2.0,,,,,,,,,,,
184,,size_choice,,html-keyboard-response,184,233402,0.0-1.0-242.0,0,0,63784,,643.0,,,68.0,60.0,60.0,2.0,2000.0,S-L,1.0,L,S,3.0,1.0,cooler,screws,cooler4,screws5,3.0,124.0,/static/Size_judgement/Stimuli/Size_stims/L/cooler/cooler3.jpg,/static/Size_judgement/Stimuli/Size_stims/S/screws/screws2.jpg,1.0,190.643,0.643,0.0,1.0,cooler,screws,L,S,3.0,1.0,cooler4,screws5,
185,,size_choice_confirmation,,html-keyboard-response,185,234263,0.0-1.0-243.0-0.0,0,0,63784,,,,,,60.0,,2.0,,,,,,,,,,,,,,,,,191.5,0.857,,,,,,,,,,,
186,,iti,,html-keyboard-response,186,236266,0.0-1.0-244.0,0,0,63784,,,,,,60.0,,2.0,,,,,,,,,,,,,,,,,193.5,2.0,,,,,,,,,,,
187,,size_choice,,html-keyboard-response,187,236850,0.0-1.0-246.0,0,0,63784,,583.0,,,75.0,61.0,61.0,2.0,1500.0,M-XL,0.0,M,XL,2.0,4.0,handsaw,car,handsaw7,car3,86.0,152.0,/static/Size_judgement/Stimuli/Size_stims/M/handsaw/handsaw5.jpg,/static/Size_judgement/Stimuli/Size_stims/XL/car/car4.jpg,1.0,194.083,0.583,0.0,0.0,car,handsaw,XL,M,4.0,2.0,car3,handsaw7,
188,,size_choice_confirmation,,html-keyboard-response,188,237784,0.0-1.0-247.0-0.0,0,0,63784,,,,,,61.0,,2.0,,,,,,,,,,,,,,,,,195.0,0.917,,,,,,,,,,,
189,,iti,,html-keyboard-response,189,239292,0.0-1.0-248.0,0,0,63784,,,,,,61.0,,2.0,,,,,,,,,,,,,,,,,196.5,1.5,,,,,,,,,,,
190,,size_choice,,html-keyboard-response,190,239752,0.0-1.0-250.0,0,0,63784,,458.0,,,75.0,62.0,62.0,2.0,1000.0,M-XL,0.0,M,XL,2.0,4.0,handsaw,tractor,handsaw1,tractor4,80.0,183.0,/static/Size_judgement/Stimuli/Size_stims/M/handsaw/handsaw8.jpg,/static/Size_judgement/Stimuli/Size_stims/XL/tractor/tractor4.jpg,1.0,196.958,0.458,0.0,0.0,tractor,handsaw,XL,M,4.0,2.0,tractor4,handsaw1,
191,,size_choice_confirmation,,html-keyboard-response,191,240800,0.0-1.0-251.0-0.0,0,0,63784,,,,,,62.0,,2.0,,,,,,,,,,,,,,,,,198.0,1.042,,,,,,,,,,,
192,,iti,,html-keyboard-response,192,241805,0.0-1.0-252.0,0,0,63784,,,,,,62.0,,2.0,,,,,,,,,,,,,,,,,199.0,1.0,,,,,,,,,,,
193,,size_choice,,html-keyboard-response,193,242644,0.0-1.0-254.0,0,0,63784,,838.0,,,68.0,63.0,63.0,2.0,1500.0,S-L,1.0,L,S,3.0,1.0,dishwasher,teabag,dishwasher9,teabag7,28.0,136.0,/static/Size_judgement/Stimuli/Size_stims/L/dishwasher/dishwasher2.jpg,/static/Size_judgement/Stimuli/Size_stims/S/teabag/teabag10.jpg,1.0,199.838,0.838,0.0,1.0,dishwasher,teabag,L,S,3.0,1.0,dishwasher9,teabag7,
194,,size_choice_confirmation,,html-keyboard-response,194,243315,0.0-1.0-255.0-0.0,0,0,63784,,,,,,63.0,,2.0,,,,,,,,,,,,,,,,,200.5,0.662,,,,,,,,,,,
195,,iti,,html-keyboard-response,195,244823,0.0-1.0-256.0,0,0,63784,,,,,,63.0,,2.0,,,,,,,,,,,,,,,,,202.0,1.5,,,,,,,,,,,
196,,size_choice,,html-keyboard-response,196,245570,0.0-1.0-258.0,0,0,63784,,745.0,,,68.0,64.0,64.0,2.0,3500.0,M-XL,1.0,XL,M,4.0,2.0,crane,coffeemaker,crane5,coffeemaker2,164.0,61.0,/static/Size_judgement/Stimuli/Size_stims/XL/crane/crane1.jpg,/static/Size_judgement/Stimuli/Size_stims/M/coffeemaker/coffeemaker12.jpg,1.0,202.745,0.745,0.0,1.0,crane,coffeemaker,XL,M,4.0,2.0,crane5,coffeemaker2,
197,,size_choice_confirmation,,html-keyboard-response,197,246340,0.0-1.0-259.0-0.0,0,0,63784,,,,,,64.0,,2.0,,,,,,,,,,,,,,,,,203.5,0.755,,,,,,,,,,,
198,,iti,,html-keyboard-response,198,249845,0.0-1.0-260.0,0,0,63784,,,,,,64.0,,2.0,,,,,,,,,,,,,,,,,207.0,3.5,,,,,,,,,,,
199,,size_choice,,html-keyboard-response,199,250535,0.0-1.0-262.0,0,0,63784,,687.0,,,68.0,65.0,65.0,2.0,1500.0,XL-XL,,XL,XL,4.0,4.0,tractor,van,tractor9,van6,188.0,195.0,/static/Size_judgement/Stimuli/Size_stims/XL/tractor/tractor9.jpg,/static/Size_judgement/Stimuli/Size_stims/XL/van/van2.jpg,,207.687,0.687,0.0,1.0,tractor,van,XL,XL,4.0,4.0,tractor9,van6,
200,,size_choice_confirmation,,html-keyboard-response,200,251354,0.0-1.0-263.0-0.0,0,0,63784,,,,,,65.0,,2.0,,,,,,,,,,,,,,,,,208.5,0.813,,,,,,,,,,,
201,,iti,,html-keyboard-response,201,252871,0.0-1.0-264.0,0,0,63784,,,,,,65.0,,2.0,,,,,,,,,,,,,,,,,210.0,1.5,,,,,,,,,,,
202,,size_choice,,html-keyboard-response,202,253672,0.0-1.0-266.0,0,0,63784,,799.0,,,75.0,66.0,66.0,2.0,2000.0,S-M,0.0,S,M,1.0,2.0,teabag,hairdryer,teabag6,hairdryer1,135.0,70.0,/static/Size_judgement/Stimuli/Size_stims/S/teabag/teabag6.jpg,/static/Size_judgement/Stimuli/Size_stims/M/hairdryer/hairdryer11.jpg,1.0,210.799,0.799,0.0,0.0,hairdryer,teabag,M,S,2.0,1.0,hairdryer1,teabag6,
203,,size_choice_confirmation,,html-keyboard-response,203,254391,0.0-1.0-267.0-0.0,0,0,63784,,,,,,66.0,,2.0,,,,,,,,,,,,,,,,,211.5,0.701,,,,,,,,,,,
204,,iti,,html-keyboard-response,204,256394,0.0-1.0-268.0,0,0,63784,,,,,,66.0,,2.0,,,,,,,,,,,,,,,,,213.5,2.0,,,,,,,,,,,
205,,size_choice,,html-keyboard-response,205,256935,0.0-1.0-270.0,0,0,63784,,540.0,,,68.0,67.0,67.0,2.0,1500.0,S-L,1.0,L,S,3.0,1.0,garbagecan,die,garbagecan8,die7,37.0,106.0,/static/Size_judgement/Stimuli/Size_stims/L/garbagecan/garbagecan13.jpg,/static/Size_judgement/Stimuli/Size_stims/S/die/die4.jpg,1.0,214.04,0.54,0.0,1.0,garbagecan,die,L,S,3.0,1.0,garbagecan8,die7,
206,,size_choice_confirmation,,html-keyboard-response,206,257903,0.0-1.0-271.0-0.0,0,0,63784,,,,,,67.0,,2.0,,,,,,,,,,,,,,,,,215.0,0.96,,,,,,,,,,,
207,,iti,,html-keyboard-response,207,259413,0.0-1.0-272.0,0,0,63784,,,,,,67.0,,2.0,,,,,,,,,,,,,,,,,216.5,1.5,,,,,,,,,,,
208,,size_choice,,html-keyboard-response,208,260024,0.0-1.0-274.0,0,0,63784,,610.0,,,75.0,68.0,68.0,2.0,1500.0,S-M,0.0,S,M,1.0,2.0,thread,basketball,thread1,basketball2,140.0,51.0,/static/Size_judgement/Stimuli/Size_stims/S/thread/thread7.jpg,/static/Size_judgement/Stimuli/Size_stims/M/basketball/basketball8.jpg,1.0,217.11,0.61,0.0,0.0,basketball,thread,M,S,2.0,1.0,basketball2,thread1,
209,,size_choice_confirmation,,html-keyboard-response,209,260916,0.0-1.0-275.0-0.0,0,0,63784,,,,,,68.0,,2.0,,,,,,,,,,,,,,,,,218.0,0.89,,,,,,,,,,,
210,,iti,,html-keyboard-response,210,262424,0.0-1.0-276.0,0,0,63784,,,,,,68.0,,2.0,,,,,,,,,,,,,,,,,219.5,1.5,,,,,,,,,,,
211,,size_choice,,html-keyboard-response,211,263104,0.0-1.0-278.0,0,0,63784,,678.0,,,75.0,69.0,69.0,2.0,1000.0,S-L,0.0,S,L,1.0,3.0,die,dishwasher,die8,dishwasher3,107.0,22.0,/static/Size_judgement/Stimuli/Size_stims/S/die/die5.jpg,/static/Size_judgement/Stimuli/Size_stims/L/dishwasher/dishwasher8.jpg,1.0,220.178,0.678,0.0,0.0,dishwasher,die,L,S,3.0,1.0,dishwasher3,die8,
212,,size_choice_confirmation,,html-keyboard-response,212,263936,0.0-1.0-279.0-0.0,0,0,63784,,,,,,69.0,,2.0,,,,,,,,,,,,,,,,,221.0,0.822,,,,,,,,,,,
213,,iti,,html-keyboard-response,213,264945,0.0-1.0-280.0,0,0,63784,,,,,,69.0,,2.0,,,,,,,,,,,,,,,,,222.0,1.0,,,,,,,,,,,
214,,size_choice,,html-keyboard-response,214,265485,0.0-1.0-282.0,0,0,63784,,537.0,,,68.0,70.0,70.0,2.0,1500.0,S-XL,1.0,XL,S,4.0,1.0,van,thread,van1,thread9,190.0,148.0,/static/Size_judgement/Stimuli/Size_stims/XL/van/van5.jpg,/static/Size_judgement/Stimuli/Size_stims/S/thread/thread8.jpg,1.0,222.537,0.537,0.0,1.0,van,thread,XL,S,4.0,1.0,van1,thread9,
215,,size_choice_confirmation,,html-keyboard-response,215,266455,0.0-1.0-283.0-0.0,0,0,63784,,,,,,70.0,,2.0,,,,,,,,,,,,,,,,,223.5,0.963,,,,,,,,,,,
216,,iti,,html-keyboard-response,216,267961,0.0-1.0-284.0,0,0,63784,,,,,,70.0,,2.0,,,,,,,,,,,,,,,,,225.0,1.5,,,,,,,,,,,
217,,size_choice,,html-keyboard-response,217,268478,0.0-1.0-286.0,0,0,63784,,515.0,,,75.0,71.0,71.0,2.0,3500.0,M-L,0.0,M,L,2.0,3.0,basketball,deskchair,basketball9,deskchair2,58.0,11.0,/static/Size_judgement/Stimuli/Size_stims/M/basketball/basketball5.jpg,/static/Size_judgement/Stimuli/Size_stims/L/deskchair/deskchair8.jpg,1.0,225.515,0.515,0.0,0.0,deskchair,basketball,L,M,3.0,2.0,deskchair2,basketball9,
218,,size_choice_confirmation,,html-keyboard-response,218,269471,0.0-1.0-287.0-0.0,0,0,63784,,,,,,71.0,,2.0,,,,,,,,,,,,,,,,,226.5,0.985,,,,,,,,,,,
219,,iti,,html-keyboard-response,219,272977,0.0-1.0-288.0,0,0,63784,,,,,,71.0,,2.0,,,,,,,,,,,,,,,,,230.0,3.5,,,,,,,,,,,
220,,size_choice,,html-keyboard-response,220,273490,0.0-1.0-290.0,0,0,63784,,511.0,,,68.0,72.0,72.0,2.0,1000.0,L-XL,1.0,XL,L,4.0,3.0,car,deskchair,car9,deskchair4,158.0,13.0,/static/Size_judgement/Stimuli/Size_stims/XL/car/car15.jpg,/static/Size_judgement/Stimuli/Size_stims/L/deskchair/deskchair6.jpg,1.0,230.511,0.511,0.0,1.0,car,deskchair,XL,L,4.0,3.0,car9,deskchair4,
221,,size_choice_confirmation,,html-keyboard-response,221,274487,0.0-1.0-291.0-0.0,0,0,63784,,,,,,72.0,,2.0,,,,,,,,,,,,,,,,,231.5,0.989,,,,,,,,,,,
222,,iti,,html-keyboard-response,222,275494,0.0-1.0-292.0,0,0,63784,,,,,,72.0,,2.0,,,,,,,,,,,,,,,,,232.5,1.0,,,,,,,,,,,
223,,size_choice,,html-keyboard-response,223,276031,0.0-1.0-294.0,0,0,63784,,536.0,,,75.0,73.0,73.0,2.0,1500.0,M-M,,M,M,2.0,2.0,hairdryer,basketball,hairdryer3,basketball3,72.0,52.0,/static/Size_judgement/Stimuli/Size_stims/M/hairdryer/hairdryer17.jpg,/static/Size_judgement/Stimuli/Size_stims/M/basketball/basketball10.jpg,,233.036,0.536,0.0,0.0,basketball,hairdryer,M,M,2.0,2.0,basketball3,hairdryer3,
224,,size_choice_confirmation,,html-keyboard-response,224,277001,0.0-1.0-295.0-0.0,0,0,63784,,,,,,73.0,,2.0,,,,,,,,,,,,,,,,,234.0,0.964,,,,,,,,,,,
225,,iti,,html-keyboard-response,225,278505,0.0-1.0-296.0,0,0,63784,,,,,,73.0,,2.0,,,,,,,,,,,,,,,,,235.5,1.5,,,,,,,,,,,
226,,size_choice,,html-keyboard-response,226,279022,0.0-1.0-298.0,0,0,63784,,515.0,,,75.0,74.0,74.0,2.0,1500.0,S-XL,0.0,S,XL,1.0,4.0,paperclip,crane,paperclip10,crane1,119.0,160.0,/static/Size_judgement/Stimuli/Size_stims/S/paperclip/paperclip10.jpg,/static/Size_judgement/Stimuli/Size_stims/XL/crane/crane7.jpg,1.0,236.015,0.515,0.0,0.0,crane,paperclip,XL,S,4.0,1.0,crane1,paperclip10,
227,,size_choice_confirmation,,html-keyboard-response,227,280011,0.0-1.0-299.0-0.0,0,0,63784,,,,,,74.0,,2.0,,,,,,,,,,,,,,,,,237.0,0.985,,,,,,,,,,,
228,,iti,,html-keyboard-response,228,281517,0.0-1.0-300.0,0,0,63784,,,,,,74.0,,2.0,,,,,,,,,,,,,,,,,238.5,1.5,,,,,,,,,,,
229,,size_choice,,html-keyboard-response,229,282110,0.0-1.0-302.0,0,0,63784,,592.0,,,68.0,75.0,75.0,2.0,1000.0,M-L,1.0,L,M,3.0,2.0,cooler,ketchup,cooler5,ketchup10,4.0,99.0,/static/Size_judgement/Stimuli/Size_stims/L/cooler/cooler10.jpg,/static/Size_judgement/Stimuli/Size_stims/M/ketchup/ketchup6.jpg,1.0,239.092,0.592,0.0,1.0,cooler,ketchup,L,M,3.0,2.0,cooler5,ketchup10,
230,,size_choice_confirmation,,html-keyboard-response,230,283035,0.0-1.0-303.0-0.0,0,0,63784,,,,,,75.0,,2.0,,,,,,,,,,,,,,,,,240.0,0.908,,,,,,,,,,,
231,,iti,,html-keyboard-response,231,284045,0.0-1.0-304.0,0,0,63784,,,,,,75.0,,2.0,,,,,,,,,,,,,,,,,241.0,1.0,,,,,,,,,,,
232,,size_choice,,html-keyboard-response,232,284681,0.0-1.0-306.0,0,0,63784,,635.0,,,75.0,76.0,76.0,2.0,3000.0,S-S,,S,S,1.0,1.0,screws,die,screws7,die4,126.0,103.0,/static/Size_judgement/Stimuli/Size_stims/S/screws/screws1.jpg,/static/Size_judgement/Stimuli/Size_stims/S/die/die2.jpg,,241.635,0.635,0.0,0.0,die,screws,S,S,1.0,1.0,die4,screws7,
233,,size_choice_confirmation,,html-keyboard-response,233,285550,0.0-1.0-307.0-0.0,0,0,63784,,,,,,76.0,,2.0,,,,,,,,,,,,,,,,,242.5,0.865,,,,,,,,,,,
234,,iti,,html-keyboard-response,234,288560,0.0-1.0-308.0,0,0,63784,,,,,,76.0,,2.0,,,,,,,,,,,,,,,,,245.5,3.0,,,,,,,,,,,
235,,size_choice,,html-keyboard-response,235,289332,0.0-1.0-310.0,0,0,63784,,770.0,,,68.0,77.0,77.0,2.0,1000.0,L-L,,L,L,3.0,3.0,mailbox,cooler,mailbox1,cooler2,40.0,1.0,/static/Size_judgement/Stimuli/Size_stims/L/mailbox/mailbox3.jpg,/static/Size_judgement/Stimuli/Size_stims/L/cooler/cooler9.jpg,,246.27,0.77,0.0,1.0,mailbox,cooler,L,L,3.0,3.0,mailbox1,cooler2,
236,,size_choice_confirmation,,html-keyboard-response,236,290070,0.0-1.0-311.0-0.0,0,0,63784,,,,,,77.0,,2.0,,,,,,,,,,,,,,,,,247.0,0.73,,,,,,,,,,,
237,,iti,,html-keyboard-response,237,291072,0.0-1.0-312.0,0,0,63784,,,,,,77.0,,2.0,,,,,,,,,,,,,,,,,248.0,1.0,,,,,,,,,,,
238,,size_choice,,html-keyboard-response,238,291566,0.0-1.0-314.0,0,0,63784,,493.0,,,68.0,78.0,78.0,2.0,1000.0,S-L,1.0,L,S,3.0,1.0,cooler,paperclip,cooler8,paperclip6,7.0,115.0,/static/Size_judgement/Stimuli/Size_stims/L/cooler/cooler5.jpg,/static/Size_judgement/Stimuli/Size_stims/S/paperclip/paperclip6.jpg,1.0,248.493,0.493,0.0,1.0,cooler,paperclip,L,S,3.0,1.0,cooler8,paperclip6,
239,,size_choice_confirmation,,html-keyboard-response,239,292581,0.0-1.0-315.0-0.0,0,0,63784,,,,,,78.0,,2.0,,,,,,,,,,,,,,,,,249.5,1.007,,,,,,,,,,,
240,,iti,,html-keyboard-response,240,293591,0.0-1.0-316.0,0,0,63784,,,,,,78.0,,2.0,,,,,,,,,,,,,,,,,250.5,1.0,,,,,,,,,,,
241,,size_choice,,html-keyboard-response,241,294170,0.0-1.0-318.0,0,0,63784,,577.0,,,75.0,79.0,79.0,2.0,3000.0,S-XL,0.0,S,XL,1.0,4.0,paperclip,crane,paperclip3,crane2,112.0,161.0,/static/Size_judgement/Stimuli/Size_stims/S/paperclip/paperclip1.jpg,/static/Size_judgement/Stimuli/Size_stims/XL/crane/crane6.jpg,1.0,251.077,0.577,0.0,0.0,crane,paperclip,XL,S,4.0,1.0,crane2,paperclip3,
242,,size_choice_confirmation,,html-keyboard-response,242,295107,0.0-1.0-319.0-0.0,0,0,63784,,,,,,79.0,,2.0,,,,,,,,,,,,,,,,,252.0,0.923,,,,,,,,,,,
243,,iti,,html-keyboard-response,243,298112,0.0-1.0-320.0,0,0,63784,,,,,,79.0,,2.0,,,,,,,,,,,,,,,,,255.0,3.0,,,,,,,,,,,
244,,size_choice,,html-keyboard-response,244,298643,0.0-1.0-322.0,0,0,63784,,530.0,,,75.0,80.0,80.0,2.0,1000.0,M-XL,0.0,M,XL,2.0,4.0,ketchup,van,ketchup1,van2,90.0,191.0,/static/Size_judgement/Stimuli/Size_stims/M/ketchup/ketchup8.jpg,/static/Size_judgement/Stimuli/Size_stims/XL/van/van4.jpg,1.0,255.53,0.53,0.0,0.0,van,ketchup,XL,M,4.0,2.0,van2,ketchup1,
245,,size_choice_confirmation,,html-keyboard-response,245,299620,0.0-1.0-323.0-0.0,0,0,63784,,,,,,80.0,,2.0,,,,,,,,,,,,,,,,,256.5,0.97,,,,,,,,,,,
246,,iti,,html-keyboard-response,246,300626,0.0-1.0-324.0,0,0,63784,,,,,,80.0,,2.0,,,,,,,,,,,,,,,,,257.5,1.0,,,,,,,,,,,
247,,size_choice,,html-keyboard-response,247,301202,0.0-1.0-326.0,0,0,63784,,574.0,,,75.0,81.0,81.0,2.0,3000.0,M-XL,0.0,M,XL,2.0,4.0,coffeemaker,tractor,coffeemaker6,tractor3,65.0,182.0,/static/Size_judgement/Stimuli/Size_stims/M/coffeemaker/coffeemaker8.jpg,/static/Size_judgement/Stimuli/Size_stims/XL/tractor/tractor5.jpg,1.0,258.074,0.574,0.0,0.0,tractor,coffeemaker,XL,M,4.0,2.0,tractor3,coffeemaker6,
248,,size_choice_confirmation,,html-keyboard-response,248,302133,0.0-1.0-327.0-0.0,0,0,63784,,,,,,81.0,,2.0,,,,,,,,,,,,,,,,,259.0,0.926,,,,,,,,,,,
249,,iti,,html-keyboard-response,249,305140,0.0-1.0-328.0,0,0,63784,,,,,,81.0,,2.0,,,,,,,,,,,,,,,,,262.0,3.0,,,,,,,,,,,
250,,size_choice,,html-keyboard-response,250,305734,0.0-1.0-330.0,0,0,63784,,591.0,,,75.0,82.0,82.0,2.0,1000.0,M-L,1.0,L,M,3.0,2.0,dishwasher,basketball,dishwasher6,basketball10,25.0,59.0,/static/Size_judgement/Stimuli/Size_stims/L/dishwasher/dishwasher6.jpg,/static/Size_judgement/Stimuli/Size_stims/M/basketball/basketball4.jpg,0.0,262.591,0.591,0.0,0.0,basketball,dishwasher,M,L,2.0,3.0,basketball10,dishwasher6,
251,,size_choice_confirmation,,html-keyboard-response,251,306651,0.0-1.0-331.0-0.0,0,0,63784,,,,,,82.0,,2.0,,,,,,,,,,,,,,,,,263.5,0.909,,,,,,,,,,,
252,,iti,,html-keyboard-response,252,307657,0.0-1.0-332.0,0,0,63784,,,,,,82.0,,2.0,,,,,,,,,,,,,,,,,264.5,1.0,,,,,,,,,,,
253,,size_choice,,html-keyboard-response,253,308289,0.0-1.0-334.0,0,0,63784,,629.0,,,68.0,83.0,83.0,2.0,1000.0,M-XL,1.0,XL,M,4.0,2.0,van,hairdryer,van8,hairdryer9,197.0,78.0,/static/Size_judgement/Stimuli/Size_stims/XL/van/van10.jpg,/static/Size_judgement/Stimuli/Size_stims/M/hairdryer/hairdryer5.jpg,1.0,265.129,0.629,0.0,1.0,van,hairdryer,XL,M,4.0,2.0,van8,hairdryer9,
254,,size_choice_confirmation,,html-keyboard-response,254,309163,0.0-1.0-335.0-0.0,0,0,63784,,,,,,83.0,,2.0,,,,,,,,,,,,,,,,,266.0,0.871,,,,,,,,,,,
255,,iti,,html-keyboard-response,255,310167,0.0-1.0-336.0,0,0,63784,,,,,,83.0,,2.0,,,,,,,,,,,,,,,,,267.0,1.0,,,,,,,,,,,
256,,size_choice,,html-keyboard-response,256,311149,0.0-1.0-338.0,0,0,63784,,981.0,,,75.0,84.0,84.0,2.0,1000.0,XL-XL,,XL,XL,4.0,4.0,tractor,dumptruck,tractor5,dumptruck3,184.0,172.0,/static/Size_judgement/Stimuli/Size_stims/XL/tractor/tractor1.jpg,/static/Size_judgement/Stimuli/Size_stims/XL/dumptruck/dumptruck10.jpg,,267.981,0.981,0.0,0.0,dumptruck,tractor,XL,XL,4.0,4.0,dumptruck3,tractor5,
257,,size_choice_confirmation,,html-keyboard-response,257,311674,0.0-1.0-339.0-0.0,0,0,63784,,,,,,84.0,,2.0,,,,,,,,,,,,,,,,,268.5,0.519,,,,,,,,,,,
258,,iti,,html-keyboard-response,258,312677,0.0-1.0-340.0,0,0,63784,,,,,,84.0,,2.0,,,,,,,,,,,,,,,,,269.5,1.0,,,,,,,,,,,
259,,size_choice,,html-keyboard-response,259,313379,0.0-1.0-342.0,0,0,63784,,700.0,,,68.0,85.0,85.0,2.0,1000.0,M-L,1.0,L,M,3.0,2.0,mailbox,basketball,mailbox7,basketball1,46.0,50.0,/static/Size_judgement/Stimuli/Size_stims/L/mailbox/mailbox7.jpg,/static/Size_judgement/Stimuli/Size_stims/M/basketball/basketball9.jpg,1.0,270.2,0.7,0.0,1.0,mailbox,basketball,L,M,3.0,2.0,mailbox7,basketball1,
260,,size_choice_confirmation,,html-keyboard-response,260,314185,0.0-1.0-343.0-0.0,0,0,63784,,,,,,85.0,,2.0,,,,,,,,,,,,,,,,,271.0,0.8,,,,,,,,,,,
261,,iti,,html-keyboard-response,261,315202,0.0-1.0-344.0,0,0,63784,,,,,,85.0,,2.0,,,,,,,,,,,,,,,,,272.0,1.0,,,,,,,,,,,
262,,size_choice,,html-keyboard-response,262,315741,0.0-1.0-346.0,0,0,63784,,536.0,,,68.0,86.0,86.0,2.0,1500.0,S-XL,1.0,XL,S,4.0,1.0,dumptruck,screws,dumptruck6,screws8,175.0,127.0,/static/Size_judgement/Stimuli/Size_stims/XL/dumptruck/dumptruck2.jpg,/static/Size_judgement/Stimuli/Size_stims/S/screws/screws10.jpg,1.0,272.536,0.536,0.0,1.0,dumptruck,screws,XL,S,4.0,1.0,dumptruck6,screws8,
263,,size_choice_confirmation,,html-keyboard-response,263,316712,0.0-1.0-347.0-0.0,0,0,63784,,,,,,86.0,,2.0,,,,,,,,,,,,,,,,,273.5,0.964,,,,,,,,,,,
264,,iti,,html-keyboard-response,264,318223,0.0-1.0-348.0,0,0,63784,,,,,,86.0,,2.0,,,,,,,,,,,,,,,,,275.0,1.5,,,,,,,,,,,
265,,size_choice,,html-keyboard-response,265,318745,0.0-1.0-350.0,0,0,63784,,520.0,,,68.0,87.0,87.0,2.0,1500.0,L-XL,1.0,XL,L,4.0,3.0,car,deskchair,car7,deskchair8,156.0,17.0,/static/Size_judgement/Stimuli/Size_stims/XL/car/car13.jpg,/static/Size_judgement/Stimuli/Size_stims/L/deskchair/deskchair1.jpg,1.0,275.52,0.52,0.0,1.0,car,deskchair,XL,L,4.0,3.0,car7,deskchair8,
266,,size_choice_confirmation,,html-keyboard-response,266,319736,0.0-1.0-351.0-0.0,0,0,63784,,,,,,87.0,,2.0,,,,,,,,,,,,,,,,,276.5,0.98,,,,,,,,,,,
267,,iti,,html-keyboard-response,267,321239,0.0-1.0-352.0,0,0,63784,,,,,,87.0,,2.0,,,,,,,,,,,,,,,,,278.0,1.5,,,,,,,,,,,
268,,size_choice,,html-keyboard-response,268,321932,0.0-1.0-354.0,0,0,63784,,691.0,,,68.0,88.0,88.0,2.0,1000.0,M-L,1.0,L,M,3.0,2.0,garbagecan,hairdryer,garbagecan10,hairdryer7,39.0,76.0,/static/Size_judgement/Stimuli/Size_stims/L/garbagecan/garbagecan11.jpg,/static/Size_judgement/Stimuli/Size_stims/M/hairdryer/hairdryer3.jpg,1.0,278.691,0.691,0.0,1.0,garbagecan,hairdryer,L,M,3.0,2.0,garbagecan10,hairdryer7,
269,,size_choice_confirmation,,html-keyboard-response,269,322747,0.0-1.0-355.0-0.0,0,0,63784,,,,,,88.0,,2.0,,,,,,,,,,,,,,,,,279.5,0.809,,,,,,,,,,,
270,,iti,,html-keyboard-response,270,323753,0.0-1.0-356.0,0,0,63784,,,,,,88.0,,2.0,,,,,,,,,,,,,,,,,280.5,1.0,,,,,,,,,,,
271,,size_choice,,html-keyboard-response,271,324279,0.0-1.0-358.0,0,0,63784,,524.0,,,75.0,89.0,89.0,2.0,2000.0,M-XL,0.0,M,XL,2.0,4.0,handsaw,car,handsaw5,car10,84.0,159.0,/static/Size_judgement/Stimuli/Size_stims/M/handsaw/handsaw1.jpg,/static/Size_judgement/Stimuli/Size_stims/XL/car/car9.jpg,1.0,281.024,0.524,0.0,0.0,car,handsaw,XL,M,4.0,2.0,car10,handsaw5,
272,,size_choice_confirmation,,html-keyboard-response,272,325263,0.0-1.0-359.0-0.0,0,0,63784,,,,,,89.0,,2.0,,,,,,,,,,,,,,,,,282.0,0.976,,,,,,,,,,,
273,,iti,,html-keyboard-response,273,327265,0.0-1.0-360.0,0,0,63784,,,,,,89.0,,2.0,,,,,,,,,,,,,,,,,284.0,2.0,,,,,,,,,,,0.99
274,,size_final_tally,,html-keyboard-response,274,328879,0.0-2.0,0,0,63784,,1610.0,,,68.0,,,,,,,,,,,,,,,,,,,,,,,,,,,,,,,,
