,success,ttype,start_time,trial_type,trial_index,time_elapsed,internal_node_id,warning,missed_checkup,PID,view_history,rt,responses,repeat_instructions,key_press,index,trial_num,block,iti,pair_type,high_size_on_left,left_size_group,right_size_group,left_size_num,right_size_num,left_category,right_category,left_exemplar,right_exemplar,left_index,right_index,left_img_path,right_img_path,left_chosen,chosen_category,unchosen_category,chosen_size_group,unchosen_size_group,chosen_size_num,unchosen_size_num,chosen_exemplar,unchosen_exemplar,accuracy,onset,duration,no_response,size_final_tally
0,True,full_screen,d06032022hr1710,fullscreen,0,4374,0.0-0.0,0,0,23720,,,,,,,,,,,,,,,,,,,,,,,,,,,,,,,,,,,,,
1,,size_instructions,,instructions,1,68396,0.0-1.0-0.0-0.0,0,0,23720,"[{""page_index"":0,""viewing_time"":2921},{""page_index"":1,""viewing_time"":14184},{""page_index"":2,""viewing_time"":4522},{""page_index"":3,""viewing_time"":2963},{""page_index"":4,""viewing_time"":2264},{""page_index"":5,""viewing_time"":37168}]",64022.0,,,,,,,,,,,,,,,,,,,,,,,,,,,,,,,,,,,
2,,size_comprehension_check,,survey-multi-choice,2,79608,0.0-1.0-0.0-1.0,0,0,23720,,11210.0,"{""Q0"":""True"",""Q1"":""Size in the real world"",""Q2"":""True"",""Q3"":""D for left and K for right""}",0.0,,,,,,,,,,,,,,,,,,,,,,,,,,,,,,,,,
3,,,,html-keyboard-response,3,81796,0.0-1.0-1.0,0,0,23720,,2186.0,,,68.0,,,,,,,,,,,,,,,,,,,,,,,,,,,,,,,,
4,,size_choice,,html-keyboard-response,4,82969,0.0-1.0-2.0,0,0,23720,,1172.0,,,75.0,0.0,0.0,1.0,2000.0,L-L,,L,L,3.0,3.0,deskchair,mailbox,deskchair10,mailbox3,19.0,42.0,/static/Size_judgement/Stimuli/Size_stims/L/deskchair/deskchair2.jpg,/static/Size_judgement/Stimuli/Size_stims/L/mailbox/mailbox1.jpg,0.0,mailbox,deskchair,L,L,3.0,3.0,mailbox3,deskchair10,,1.172,1.172,0.0,
5,,size_choice_confirmation,,html-keyboard-response,5,83299,0.0-1.0-3.0-0.0,0,0,23720,,,,,,0.0,,,,,,,,,,,,,,,,,,,,,,,,,,,,1.5,0.328,,
6,,iti,,html-keyboard-response,6,85302,0.0-1.0-4.0,0,0,23720,,,,,,,,,,,,,,,,,,,,,,,,,,,,,,,,,,3.5,2.0,,
7,,size_choice,,html-keyboard-response,7,86021,0.0-1.0-6.0,0,0,23720,,718.0,,,68.0,1.0,1.0,1.0,1000.0,S-XL,1.0,XL,S,4.0,1.0,dumptruck,teabag,dumptruck9,teabag3,178.0,132.0,/static/Size_judgement/Stimuli/Size_stims/XL/dumptruck/dumptruck5.jpg,/static/Size_judgement/Stimuli/Size_stims/S/teabag/teabag1.jpg,1.0,dumptruck,teabag,XL,S,4.0,1.0,dumptruck9,teabag3,1.0,4.218,0.718,0.0,
8,,size_choice_confirmation,,html-keyboard-response,8,86805,0.0-1.0-7.0-0.0,0,0,23720,,,,,,1.0,,,,,,,,,,,,,,,,,,,,,,,,,,,,5.0,0.782,,
9,,iti,,html-keyboard-response,9,87806,0.0-1.0-8.0,0,0,23720,,,,,,,,,,,,,,,,,,,,,,,,,,,,,,,,,,6.0,1.0,,
10,,size_choice,,html-keyboard-response,10,88686,0.0-1.0-10.0,0,0,23720,,879.0,,,68.0,2.0,2.0,1.0,1000.0,M-L,1.0,L,M,3.0,2.0,mailbox,ketchup,mailbox9,ketchup7,48.0,96.0,/static/Size_judgement/Stimuli/Size_stims/L/mailbox/mailbox9.jpg,/static/Size_judgement/Stimuli/Size_stims/M/ketchup/ketchup4.jpg,1.0,mailbox,ketchup,L,M,3.0,2.0,mailbox9,ketchup7,1.0,6.879,0.879,0.0,
11,,size_choice_confirmation,,html-keyboard-response,11,89309,0.0-1.0-11.0-0.0,0,0,23720,,,,,,2.0,,,,,,,,,,,,,,,,,,,,,,,,,,,,7.5,0.621,,
12,,iti,,html-keyboard-response,12,90311,0.0-1.0-12.0,0,0,23720,,,,,,,,,,,,,,,,,,,,,,,,,,,,,,,,,,8.5,1.0,,
13,,size_choice,,html-keyboard-response,13,91141,0.0-1.0-14.0,0,0,23720,,829.0,,,68.0,3.0,3.0,1.0,2000.0,M-XL,1.0,XL,M,4.0,2.0,dumptruck,ketchup,dumptruck4,ketchup2,173.0,91.0,/static/Size_judgement/Stimuli/Size_stims/XL/dumptruck/dumptruck1.jpg,/static/Size_judgement/Stimuli/Size_stims/M/ketchup/ketchup9.jpg,1.0,dumptruck,ketchup,XL,M,4.0,2.0,dumptruck4,ketchup2,1.0,9.329,0.829,0.0,
14,,size_choice_confirmation,,html-keyboard-response,14,91814,0.0-1.0-15.0-0.0,0,0,23720,,,,,,3.0,,,,,,,,,,,,,,,,,,,,,,,,,,,,10.0,0.671,,
15,,iti,,html-keyboard-response,15,93815,0.0-1.0-16.0,0,0,23720,,,,,,,,,,,,,,,,,,,,,,,,,,,,,,,,,,12.0,2.0,,
16,,size_choice,,html-keyboard-response,16,94454,0.0-1.0-18.0,0,0,23720,,637.0,,,75.0,4.0,4.0,1.0,1000.0,L-XL,0.0,L,XL,3.0,4.0,garbagecan,dumptruck,garbagecan9,dumptruck7,38.0,176.0,/static/Size_judgement/Stimuli/Size_stims/L/garbagecan/garbagecan12.jpg,/static/Size_judgement/Stimuli/Size_stims/XL/dumptruck/dumptruck6.jpg,0.0,dumptruck,garbagecan,XL,L,4.0,3.0,dumptruck7,garbagecan9,1.0,12.637,0.637,0.0,
17,,size_choice_confirmation,,html-keyboard-response,17,95318,0.0-1.0-19.0-0.0,0,0,23720,,,,,,4.0,,,,,,,,,,,,,,,,,,,,,,,,,,,,13.5,0.863,,
18,,iti,,html-keyboard-response,18,96321,0.0-1.0-20.0,0,0,23720,,,,,,,,,,,,,,,,,,,,,,,,,,,,,,,,,,14.5,1.0,,
19,,size_choice,,html-keyboard-response,19,97433,0.0-1.0-22.0,0,0,23720,,1112.0,,,68.0,5.0,5.0,1.0,1500.0,S-L,1.0,L,S,3.0,1.0,mailbox,thread,mailbox8,thread8,47.0,147.0,/static/Size_judgement/Stimuli/Size_stims/L/mailbox/mailbox10.jpg,/static/Size_judgement/Stimuli/Size_stims/S/thread/thread10.jpg,1.0,mailbox,thread,L,S,3.0,1.0,mailbox8,thread8,1.0,15.612,1.112,0.0,
20,,size_choice_confirmation,,html-keyboard-response,20,97823,0.0-1.0-23.0-0.0,0,0,23720,,,,,,5.0,,,,,,,,,,,,,,,,,,,,,,,,,,,,16.0,0.388,,
21,,iti,,html-keyboard-response,21,99325,0.0-1.0-24.0,0,0,23720,,,,,,,,,,,,,,,,,,,,,,,,,,,,,,,,,,17.5,1.5,,
22,,size_choice,,html-keyboard-response,22,100623,0.0-1.0-26.0,0,0,23720,,1298.0,,,68.0,6.0,6.0,1.0,2000.0,S-L,1.0,L,S,3.0,1.0,garbagecan,teabag,garbagecan6,teabag10,35.0,139.0,/static/Size_judgement/Stimuli/Size_stims/L/garbagecan/garbagecan14.jpg,/static/Size_judgement/Stimuli/Size_stims/S/teabag/teabag4.jpg,1.0,garbagecan,teabag,L,S,3.0,1.0,garbagecan6,teabag10,1.0,18.798,1.298,0.0,
23,,size_choice_confirmation,,html-keyboard-response,23,100826,0.0-1.0-27.0-0.0,0,0,23720,,,,,,6.0,,,,,,,,,,,,,,,,,,,,,,,,,,,,19.000000000000004,0.202,,
24,,iti,,html-keyboard-response,24,102827,0.0-1.0-28.0,0,0,23720,,,,,,,,,,,,,,,,,,,,,,,,,,,,,,,,,,21.000000000000004,2.0,,
25,,size_choice,,html-keyboard-response,25,103408,0.0-1.0-30.0,0,0,23720,,580.0,,,68.0,7.0,7.0,1.0,1000.0,M-XL,1.0,XL,M,4.0,2.0,car,ketchup,car2,ketchup5,151.0,94.0,/static/Size_judgement/Stimuli/Size_stims/XL/car/car3.jpg,/static/Size_judgement/Stimuli/Size_stims/M/ketchup/ketchup3.jpg,1.0,car,ketchup,XL,M,4.0,2.0,car2,ketchup5,1.0,21.58,0.58,0.0,
26,,size_choice_confirmation,,html-keyboard-response,26,104330,0.0-1.0-31.0-0.0,0,0,23720,,,,,,7.0,,,,,,,,,,,,,,,,,,,,,,,,,,,,22.500000000000004,0.92,,
27,,iti,,html-keyboard-response,27,105332,0.0-1.0-32.0,0,0,23720,,,,,,,,,,,,,,,,,,,,,,,,,,,,,,,,,,23.500000000000004,1.0,,
28,,size_choice,,html-keyboard-response,28,106526,0.0-1.0-34.0,0,0,23720,,1194.0,,,68.0,8.0,8.0,1.0,1000.0,XL-XL,,XL,XL,4.0,4.0,van,car,van3,car4,192.0,153.0,/static/Size_judgement/Stimuli/Size_stims/XL/van/van6.jpg,/static/Size_judgement/Stimuli/Size_stims/XL/car/car6.jpg,1.0,van,car,XL,XL,4.0,4.0,van3,car4,,24.694000000000003,1.194,0.0,
29,,size_choice_confirmation,,html-keyboard-response,29,106834,0.0-1.0-35.0-0.0,0,0,23720,,,,,,8.0,,,,,,,,,,,,,,,,,,,,,,,,,,,,25.000000000000004,0.306,,
30,,iti,,html-keyboard-response,30,107835,0.0-1.0-36.0,0,0,23720,,,,,,,,,,,,,,,,,,,,,,,,,,,,,,,,,,26.000000000000004,1.0,,
31,,size_choice,,html-keyboard-response,31,108649,0.0-1.0-38.0,0,0,23720,,813.0,,,75.0,9.0,9.0,1.0,1500.0,S-XL,0.0,S,XL,1.0,4.0,teabag,dumptruck,teabag8,dumptruck8,137.0,177.0,/static/Size_judgement/Stimuli/Size_stims/S/teabag/teabag7.jpg,/static/Size_judgement/Stimuli/Size_stims/XL/dumptruck/dumptruck7.jpg,0.0,dumptruck,teabag,XL,S,4.0,1.0,dumptruck8,teabag8,1.0,26.813,0.813,0.0,
32,,size_choice_confirmation,,html-keyboard-response,32,109338,0.0-1.0-39.0-0.0,0,0,23720,,,,,,9.0,,,,,,,,,,,,,,,,,,,,,,,,,,,,27.500000000000004,0.687,,
33,,iti,,html-keyboard-response,33,110840,0.0-1.0-40.0,0,0,23720,,,,,,,,,,,,,,,,,,,,,,,,,,,,,,,,,,29.000000000000004,1.5,,
34,,size_choice,,html-keyboard-response,34,112290,0.0-1.0-42.0,0,0,23720,,1449.0,,,75.0,10.0,10.0,1.0,1000.0,M-M,,M,M,2.0,2.0,handsaw,ketchup,handsaw4,ketchup9,83.0,98.0,/static/Size_judgement/Stimuli/Size_stims/M/handsaw/handsaw3.jpg,/static/Size_judgement/Stimuli/Size_stims/M/ketchup/ketchup7.jpg,0.0,ketchup,handsaw,M,M,2.0,2.0,ketchup9,handsaw4,,30.449000000000005,1.449,0.0,
35,,size_choice_confirmation,,html-keyboard-response,35,112343,0.0-1.0-43.0-0.0,0,0,23720,,,,,,10.0,,,,,,,,,,,,,,,,,,,,,,,,,,,,30.500000000000004,0.051,,
36,,iti,,html-keyboard-response,36,113344,0.0-1.0-44.0,0,0,23720,,,,,,,,,,,,,,,,,,,,,,,,,,,,,,,,,,31.500000000000004,1.0,,
37,,size_choice,,html-keyboard-response,37,114757,0.0-1.0-46.0,0,0,23720,,1411.0,,,75.0,11.0,11.0,1.0,1000.0,M-L,0.0,M,L,2.0,3.0,hairdryer,garbagecan,hairdryer6,garbagecan3,75.0,32.0,/static/Size_judgement/Stimuli/Size_stims/M/hairdryer/hairdryer8.jpg,/static/Size_judgement/Stimuli/Size_stims/L/garbagecan/garbagecan7.jpg,0.0,garbagecan,hairdryer,L,M,3.0,2.0,garbagecan3,hairdryer6,1.0,32.911,1.411,0.0,
38,,size_choice_confirmation,,html-keyboard-response,38,114848,0.0-1.0-47.0-0.0,0,0,23720,,,,,,11.0,,,,,,,,,,,,,,,,,,,,,,,,,,,,33.0,0.089,,
39,,iti,,html-keyboard-response,39,115849,0.0-1.0-48.0,0,0,23720,,,,,,,,,,,,,,,,,,,,,,,,,,,,,,,,,,34.0,1.0,,
40,,size_choice,,html-keyboard-response,40,116865,0.0-1.0-50.0,0,0,23720,,1016.0,,,75.0,12.0,12.0,1.0,2000.0,M-L,0.0,M,L,2.0,3.0,coffeemaker,garbagecan,coffeemaker5,garbagecan4,64.0,33.0,/static/Size_judgement/Stimuli/Size_stims/M/coffeemaker/coffeemaker10.jpg,/static/Size_judgement/Stimuli/Size_stims/L/garbagecan/garbagecan6.jpg,0.0,garbagecan,coffeemaker,L,M,3.0,2.0,garbagecan4,coffeemaker5,1.0,35.016,1.016,0.0,
41,,size_choice_confirmation,,html-keyboard-response,41,117352,0.0-1.0-51.0-0.0,0,0,23720,,,,,,12.0,,,,,,,,,,,,,,,,,,,,,,,,,,,,35.5,0.484,,
42,,iti,,html-keyboard-response,42,119354,0.0-1.0-52.0,0,0,23720,,,,,,,,,,,,,,,,,,,,,,,,,,,,,,,,,,37.5,2.0,,
43,,size_choice,,html-keyboard-response,43,119913,0.0-1.0-54.0,0,0,23720,,559.0,,,75.0,13.0,13.0,1.0,1000.0,S-L,0.0,S,L,1.0,3.0,screws,garbagecan,screws10,garbagecan2,129.0,31.0,/static/Size_judgement/Stimuli/Size_stims/S/screws/screws9.jpg,/static/Size_judgement/Stimuli/Size_stims/L/garbagecan/garbagecan5.jpg,0.0,garbagecan,screws,L,S,3.0,1.0,garbagecan2,screws10,1.0,38.059,0.559,0.0,
44,,size_choice_confirmation,,html-keyboard-response,44,120856,0.0-1.0-55.0-0.0,0,0,23720,,,,,,13.0,,,,,,,,,,,,,,,,,,,,,,,,,,,,39.0,0.941,,
45,,iti,,html-keyboard-response,45,121857,0.0-1.0-56.0,0,0,23720,,,,,,,,,,,,,,,,,,,,,,,,,,,,,,,,,,40.0,1.0,,
46,,size_choice,,html-keyboard-response,46,122775,0.0-1.0-58.0,0,0,23720,,917.0,,,68.0,14.0,14.0,1.0,1000.0,M-XL,1.0,XL,M,4.0,2.0,dumptruck,hairdryer,dumptruck5,hairdryer4,174.0,73.0,/static/Size_judgement/Stimuli/Size_stims/XL/dumptruck/dumptruck3.jpg,/static/Size_judgement/Stimuli/Size_stims/M/hairdryer/hairdryer16.jpg,1.0,dumptruck,hairdryer,XL,M,4.0,2.0,dumptruck5,hairdryer4,1.0,40.917,0.917,0.0,
47,,size_choice_confirmation,,html-keyboard-response,47,123360,0.0-1.0-59.0-0.0,0,0,23720,,,,,,14.0,,,,,,,,,,,,,,,,,,,,,,,,,,,,41.5,0.583,,
48,,iti,,html-keyboard-response,48,124362,0.0-1.0-60.0,0,0,23720,,,,,,,,,,,,,,,,,,,,,,,,,,,,,,,,,,42.5,1.0,,
49,,size_choice,,html-keyboard-response,49,125092,0.0-1.0-62.0,0,0,23720,,730.0,,,68.0,15.0,15.0,1.0,1000.0,S-XL,1.0,XL,S,4.0,1.0,van,screws,van5,screws1,194.0,120.0,/static/Size_judgement/Stimuli/Size_stims/XL/van/van3.jpg,/static/Size_judgement/Stimuli/Size_stims/S/screws/screws4.jpg,1.0,van,screws,XL,S,4.0,1.0,van5,screws1,1.0,43.23,0.73,0.0,
50,,size_choice_confirmation,,html-keyboard-response,50,125864,0.0-1.0-63.0-0.0,0,0,23720,,,,,,15.0,,,,,,,,,,,,,,,,,,,,,,,,,,,,44.0,0.77,,
51,,iti,,html-keyboard-response,51,126865,0.0-1.0-64.0,0,0,23720,,,,,,,,,,,,,,,,,,,,,,,,,,,,,,,,,,45.0,1.0,,
52,,size_choice,,html-keyboard-response,52,127577,0.0-1.0-66.0,0,0,23720,,711.0,,,75.0,16.0,16.0,1.0,3000.0,S-M,0.0,S,M,1.0,2.0,teabag,coffeemaker,teabag9,coffeemaker8,138.0,67.0,/static/Size_judgement/Stimuli/Size_stims/S/teabag/teabag5.jpg,/static/Size_judgement/Stimuli/Size_stims/M/coffeemaker/coffeemaker5.jpg,0.0,coffeemaker,teabag,M,S,2.0,1.0,coffeemaker8,teabag9,1.0,45.711,0.711,0.0,
53,,size_choice_confirmation,,html-keyboard-response,53,128369,0.0-1.0-67.0-0.0,0,0,23720,,,,,,16.0,,,,,,,,,,,,,,,,,,,,,,,,,,,,46.5,0.789,,
54,,iti,,html-keyboard-response,54,131371,0.0-1.0-68.0,0,0,23720,,,,,,,,,,,,,,,,,,,,,,,,,,,,,,,,,,49.5,3.0,,
55,,size_choice,,html-keyboard-response,55,132019,0.0-1.0-70.0,0,0,23720,,648.0,,,68.0,17.0,17.0,1.0,1000.0,M-XL,1.0,XL,M,4.0,2.0,dumptruck,hairdryer,dumptruck10,hairdryer8,179.0,77.0,/static/Size_judgement/Stimuli/Size_stims/XL/dumptruck/dumptruck4.jpg,/static/Size_judgement/Stimuli/Size_stims/M/hairdryer/hairdryer1.jpg,1.0,dumptruck,hairdryer,XL,M,4.0,2.0,dumptruck10,hairdryer8,1.0,50.148,0.648,0.0,
56,,size_choice_confirmation,,html-keyboard-response,56,132873,0.0-1.0-71.0-0.0,0,0,23720,,,,,,17.0,,,,,,,,,,,,,,,,,,,,,,,,,,,,51.0,0.852,,
57,,iti,,html-keyboard-response,57,133875,0.0-1.0-72.0,0,0,23720,,,,,,,,,,,,,,,,,,,,,,,,,,,,,,,,,,52.0,1.0,,
58,,size_choice,,html-keyboard-response,58,134971,0.0-1.0-74.0,0,0,23720,,1096.0,,,75.0,18.0,18.0,1.0,1500.0,S-L,0.0,S,L,1.0,3.0,die,mailbox,die10,mailbox10,109.0,49.0,/static/Size_judgement/Stimuli/Size_stims/S/die/die6.jpg,/static/Size_judgement/Stimuli/Size_stims/L/mailbox/mailbox8.jpg,0.0,mailbox,die,L,S,3.0,1.0,mailbox10,die10,1.0,53.096,1.096,0.0,
59,,size_choice_confirmation,,html-keyboard-response,59,135377,0.0-1.0-75.0-0.0,0,0,23720,,,,,,18.0,,,,,,,,,,,,,,,,,,,,,,,,,,,,53.50000000000001,0.404,,
60,,iti,,html-keyboard-response,60,136878,0.0-1.0-76.0,0,0,23720,,,,,,,,,,,,,,,,,,,,,,,,,,,,,,,,,,55.00000000000001,1.5,,
61,,size_choice,,html-keyboard-response,61,137675,0.0-1.0-78.0,0,0,23720,,797.0,,,68.0,19.0,19.0,1.0,1000.0,S-XL,1.0,XL,S,4.0,1.0,dumptruck,die,dumptruck1,die6,170.0,105.0,/static/Size_judgement/Stimuli/Size_stims/XL/dumptruck/dumptruck9.jpg,/static/Size_judgement/Stimuli/Size_stims/S/die/die1.jpg,1.0,dumptruck,die,XL,S,4.0,1.0,dumptruck1,die6,1.0,55.797,0.797,0.0,
62,,size_choice_confirmation,,html-keyboard-response,62,138379,0.0-1.0-79.0-0.0,0,0,23720,,,,,,19.0,,,,,,,,,,,,,,,,,,,,,,,,,,,,56.50000000000001,0.703,,
63,,iti,,html-keyboard-response,63,139380,0.0-1.0-80.0,0,0,23720,,,,,,,,,,,,,,,,,,,,,,,,,,,,,,,,,,57.50000000000001,1.0,,
64,,size_choice,,html-keyboard-response,64,140146,0.0-1.0-82.0,0,0,23720,,765.0,,,75.0,20.0,20.0,1.0,1500.0,M-XL,0.0,M,XL,2.0,4.0,basketball,tractor,basketball7,tractor6,56.0,185.0,/static/Size_judgement/Stimuli/Size_stims/M/basketball/basketball6.jpg,/static/Size_judgement/Stimuli/Size_stims/XL/tractor/tractor3.jpg,0.0,tractor,basketball,XL,M,4.0,2.0,tractor6,basketball7,1.0,58.26500000000001,0.765,0.0,
65,,size_choice_confirmation,,html-keyboard-response,65,140883,0.0-1.0-83.0-0.0,0,0,23720,,,,,,20.0,,,,,,,,,,,,,,,,,,,,,,,,,,,,59.00000000000001,0.735,,
66,,iti,,html-keyboard-response,66,142385,0.0-1.0-84.0,0,0,23720,,,,,,,,,,,,,,,,,,,,,,,,,,,,,,,,,,60.50000000000001,1.5,,
67,,size_choice,,html-keyboard-response,67,143445,0.0-1.0-86.0,0,0,23720,,1059.0,,,75.0,21.0,21.0,1.0,3000.0,M-M,,M,M,2.0,2.0,handsaw,ketchup,handsaw10,ketchup8,89.0,97.0,/static/Size_judgement/Stimuli/Size_stims/M/handsaw/handsaw10.jpg,/static/Size_judgement/Stimuli/Size_stims/M/ketchup/ketchup5.jpg,0.0,ketchup,handsaw,M,M,2.0,2.0,ketchup8,handsaw10,,61.559000000000005,1.059,0.0,
68,,size_choice_confirmation,,html-keyboard-response,68,143887,0.0-1.0-87.0-0.0,0,0,23720,,,,,,21.0,,,,,,,,,,,,,,,,,,,,,,,,,,,,62.00000000000001,0.441,,
69,,iti,,html-keyboard-response,69,146888,0.0-1.0-88.0,0,0,23720,,,,,,,,,,,,,,,,,,,,,,,,,,,,,,,,,,65.0,3.0,,
70,,size_choice,,html-keyboard-response,70,148391,0.0-1.0-90.0,0,0,23720,,,,,,22.0,22.0,1.0,1000.0,S-S,,S,S,1.0,1.0,thread,paperclip,thread7,paperclip1,146.0,110.0,/static/Size_judgement/Stimuli/Size_stims/S/thread/thread3.jpg,/static/Size_judgement/Stimuli/Size_stims/S/paperclip/paperclip9.jpg,,,,,,,,,,,66.5,1.5,1.0,
71,,iti,,html-keyboard-response,71,149392,0.0-1.0-92.0,0,0,23720,,,,,,,,,,,,,,,,,,,,,,,,,,,,,,,,,,67.5,1.0,,
72,,size_choice,,html-keyboard-response,72,150452,0.0-1.0-94.0,0,0,23720,,1059.0,,,68.0,23.0,23.0,1.0,1500.0,M-XL,1.0,XL,M,4.0,2.0,car,handsaw,car6,handsaw2,155.0,81.0,/static/Size_judgement/Stimuli/Size_stims/XL/car/car12.jpg,/static/Size_judgement/Stimuli/Size_stims/M/handsaw/handsaw9.jpg,1.0,car,handsaw,XL,M,4.0,2.0,car6,handsaw2,1.0,68.559,1.059,0.0,
73,,size_choice_confirmation,,html-keyboard-response,73,150895,0.0-1.0-95.0-0.0,0,0,23720,,,,,,23.0,,,,,,,,,,,,,,,,,,,,,,,,,,,,69.0,0.441,,
74,,iti,,html-keyboard-response,74,152397,0.0-1.0-96.0,0,0,23720,,,,,,,,,,,,,,,,,,,,,,,,,,,,,,,,,,70.5,1.5,,
75,,size_choice,,html-keyboard-response,75,152932,0.0-1.0-98.0,0,0,23720,,535.0,,,75.0,24.0,24.0,1.0,1500.0,S-L,0.0,S,L,1.0,3.0,die,deskchair,die3,deskchair6,102.0,15.0,/static/Size_judgement/Stimuli/Size_stims/S/die/die10.jpg,/static/Size_judgement/Stimuli/Size_stims/L/deskchair/deskchair5.jpg,0.0,deskchair,die,L,S,3.0,1.0,deskchair6,die3,1.0,71.035,0.535,0.0,
76,,size_choice_confirmation,,html-keyboard-response,76,153899,0.0-1.0-99.0-0.0,0,0,23720,,,,,,24.0,,,,,,,,,,,,,,,,,,,,,,,,,,,,72.0,0.965,,
77,,iti,,html-keyboard-response,77,155401,0.0-1.0-100.0,0,0,23720,,,,,,,,,,,,,,,,,,,,,,,,,,,,,,,,,,73.5,1.5,,
78,,size_choice,,html-keyboard-response,78,156250,0.0-1.0-102.0,0,0,23720,,849.0,,,75.0,25.0,25.0,1.0,1500.0,S-S,,S,S,1.0,1.0,paperclip,die,paperclip9,die1,118.0,100.0,/static/Size_judgement/Stimuli/Size_stims/S/paperclip/paperclip4.jpg,/static/Size_judgement/Stimuli/Size_stims/S/die/die8.jpg,0.0,die,paperclip,S,S,1.0,1.0,die1,paperclip9,,74.349,0.849,0.0,
79,,size_choice_confirmation,,html-keyboard-response,79,156903,0.0-1.0-103.0-0.0,0,0,23720,,,,,,25.0,,,,,,,,,,,,,,,,,,,,,,,,,,,,75.0,0.651,,
80,,iti,,html-keyboard-response,80,158404,0.0-1.0-104.0,0,0,23720,,,,,,,,,,,,,,,,,,,,,,,,,,,,,,,,,,76.5,1.5,,
81,,size_choice,,html-keyboard-response,81,159051,0.0-1.0-106.0,0,0,23720,,646.0,,,75.0,26.0,26.0,1.0,2000.0,M-L,0.0,M,L,2.0,3.0,basketball,deskchair,basketball4,deskchair9,53.0,18.0,/static/Size_judgement/Stimuli/Size_stims/M/basketball/basketball1.jpg,/static/Size_judgement/Stimuli/Size_stims/L/deskchair/deskchair3.jpg,0.0,deskchair,basketball,L,M,3.0,2.0,deskchair9,basketball4,1.0,77.146,0.646,0.0,
82,,size_choice_confirmation,,html-keyboard-response,82,159906,0.0-1.0-107.0-0.0,0,0,23720,,,,,,26.0,,,,,,,,,,,,,,,,,,,,,,,,,,,,78.0,0.854,,
83,,iti,,html-keyboard-response,83,161907,0.0-1.0-108.0,0,0,23720,,,,,,,,,,,,,,,,,,,,,,,,,,,,,,,,,,80.0,2.0,,
84,,size_choice,,html-keyboard-response,84,162629,0.0-1.0-110.0,0,0,23720,,722.0,,,75.0,27.0,27.0,1.0,1500.0,S-XL,0.0,S,XL,1.0,4.0,screws,crane,screws6,crane6,125.0,165.0,/static/Size_judgement/Stimuli/Size_stims/S/screws/screws3.jpg,/static/Size_judgement/Stimuli/Size_stims/XL/crane/crane2.jpg,0.0,crane,screws,XL,S,4.0,1.0,crane6,screws6,1.0,80.722,0.722,0.0,
85,,size_choice_confirmation,,html-keyboard-response,85,163409,0.0-1.0-111.0-0.0,0,0,23720,,,,,,27.0,,,,,,,,,,,,,,,,,,,,,,,,,,,,81.5,0.778,,
86,,iti,,html-keyboard-response,86,164910,0.0-1.0-112.0,0,0,23720,,,,,,,,,,,,,,,,,,,,,,,,,,,,,,,,,,83.0,1.5,,
87,,size_choice,,html-keyboard-response,87,166117,0.0-1.0-114.0,0,0,23720,,1205.0,,,75.0,28.0,28.0,1.0,3000.0,M-L,0.0,M,L,2.0,3.0,coffeemaker,dishwasher,coffeemaker1,dishwasher7,60.0,26.0,/static/Size_judgement/Stimuli/Size_stims/M/coffeemaker/coffeemaker14.jpg,/static/Size_judgement/Stimuli/Size_stims/L/dishwasher/dishwasher7.jpg,0.0,dishwasher,coffeemaker,L,M,3.0,2.0,dishwasher7,coffeemaker1,1.0,84.205,1.205,0.0,
88,,size_choice_confirmation,,html-keyboard-response,88,166414,0.0-1.0-115.0-0.0,0,0,23720,,,,,,28.0,,,,,,,,,,,,,,,,,,,,,,,,,,,,84.5,0.295,,
89,,iti,,html-keyboard-response,89,169416,0.0-1.0-116.0,0,0,23720,,,,,,,,,,,,,,,,,,,,,,,,,,,,,,,,,,87.5,3.0,,
90,,size_choice,,html-keyboard-response,90,170392,0.0-1.0-118.0,0,0,23720,,976.0,,,75.0,29.0,29.0,1.0,2000.0,L-XL,0.0,L,XL,3.0,4.0,mailbox,tractor,mailbox6,tractor2,45.0,181.0,/static/Size_judgement/Stimuli/Size_stims/L/mailbox/mailbox6.jpg,/static/Size_judgement/Stimuli/Size_stims/XL/tractor/tractor7.jpg,0.0,tractor,mailbox,XL,L,4.0,3.0,tractor2,mailbox6,1.0,88.476,0.976,0.0,
91,,size_choice_confirmation,,html-keyboard-response,91,170918,0.0-1.0-119.0-0.0,0,0,23720,,,,,,29.0,,,,,,,,,,,,,,,,,,,,,,,,,,,,89.0,0.524,,
92,,iti,,html-keyboard-response,92,172919,0.0-1.0-120.0,0,0,23720,,,,,,,,,,,,,,,,,,,,,,,,,,,,,,,,,,91.0,2.0,,
93,,size_choice,,html-keyboard-response,93,173804,0.0-1.0-122.0,0,0,23720,,884.0,,,75.0,30.0,30.0,1.0,1500.0,S-XL,0.0,S,XL,1.0,4.0,teabag,crane,teabag5,crane7,134.0,166.0,/static/Size_judgement/Stimuli/Size_stims/S/teabag/teabag2.jpg,/static/Size_judgement/Stimuli/Size_stims/XL/crane/crane3.jpg,0.0,crane,teabag,XL,S,4.0,1.0,crane7,teabag5,1.0,91.884,0.884,0.0,
94,,size_choice_confirmation,,html-keyboard-response,94,174421,0.0-1.0-123.0-0.0,0,0,23720,,,,,,30.0,,,,,,,,,,,,,,,,,,,,,,,,,,,,92.5,0.616,,
95,,iti,,html-keyboard-response,95,175923,0.0-1.0-124.0,0,0,23720,,,,,,,,,,,,,,,,,,,,,,,,,,,,,,,,,,94.0,1.5,,
96,,size_choice,,html-keyboard-response,96,177425,0.0-1.0-126.0,0,0,23720,,,,,,31.0,31.0,1.0,3500.0,M-L,0.0,M,L,2.0,3.0,coffeemaker,cooler,coffeemaker4,cooler10,63.0,9.0,/static/Size_judgement/Stimuli/Size_stims/M/coffeemaker/coffeemaker11.jpg,/static/Size_judgement/Stimuli/Size_stims/L/cooler/cooler6.jpg,,,,,,,,,,,95.5,1.5,1.0,
97,,iti,,html-keyboard-response,97,180926,0.0-1.0-128.0,0,0,23720,,,,,,,,,,,,,,,,,,,,,,,,,,,,,,,,,,99.0,3.5,,
98,,size_choice,,html-keyboard-response,98,181621,0.0-1.0-130.0,0,0,23720,,694.0,,,75.0,32.0,32.0,1.0,3000.0,S-XL,0.0,S,XL,1.0,4.0,paperclip,car,paperclip4,car1,113.0,150.0,/static/Size_judgement/Stimuli/Size_stims/S/paperclip/paperclip3.jpg,/static/Size_judgement/Stimuli/Size_stims/XL/car/car2.jpg,0.0,car,paperclip,XL,S,4.0,1.0,car1,paperclip4,1.0,99.694,0.694,0.0,
99,,size_choice_confirmation,,html-keyboard-response,99,182428,0.0-1.0-131.0-0.0,0,0,23720,,,,,,32.0,,,,,,,,,,,,,,,,,,,,,,,,,,,,100.5,0.806,,
100,,iti,,html-keyboard-response,100,185430,0.0-1.0-132.0,0,0,23720,,,,,,,,,,,,,,,,,,,,,,,,,,,,,,,,,,103.5,3.0,,
101,,size_choice,,html-keyboard-response,101,186180,0.0-1.0-134.0,0,0,23720,,749.0,,,75.0,33.0,33.0,1.0,1000.0,M-M,,M,M,2.0,2.0,ketchup,hairdryer,ketchup3,hairdryer2,92.0,71.0,/static/Size_judgement/Stimuli/Size_stims/M/ketchup/ketchup10.jpg,/static/Size_judgement/Stimuli/Size_stims/M/hairdryer/hairdryer12.jpg,0.0,hairdryer,ketchup,M,M,2.0,2.0,hairdryer2,ketchup3,,104.249,0.749,0.0,
102,,size_choice_confirmation,,html-keyboard-response,102,186933,0.0-1.0-135.0-0.0,0,0,23720,,,,,,33.0,,,,,,,,,,,,,,,,,,,,,,,,,,,,105.0,0.751,,
103,,iti,,html-keyboard-response,103,187934,0.0-1.0-136.0,0,0,23720,,,,,,,,,,,,,,,,,,,,,,,,,,,,,,,,,,106.0,1.0,,
104,,size_choice,,html-keyboard-response,104,189347,0.0-1.0-138.0,0,0,23720,,1412.0,,,75.0,34.0,34.0,1.0,2000.0,S-S,,S,S,1.0,1.0,teabag,screws,teabag4,screws4,133.0,123.0,/static/Size_judgement/Stimuli/Size_stims/S/teabag/teabag3.jpg,/static/Size_judgement/Stimuli/Size_stims/S/screws/screws6.jpg,0.0,screws,teabag,S,S,1.0,1.0,screws4,teabag4,,107.412,1.412,0.0,
105,,size_choice_confirmation,,html-keyboard-response,105,189436,0.0-1.0-139.0-0.0,0,0,23720,,,,,,34.0,,,,,,,,,,,,,,,,,,,,,,,,,,,,107.5,0.088,,
106,,iti,,html-keyboard-response,106,191438,0.0-1.0-140.0,0,0,23720,,,,,,,,,,,,,,,,,,,,,,,,,,,,,,,,,,109.5,2.0,,
107,,size_choice,,html-keyboard-response,107,192288,0.0-1.0-142.0,0,0,23720,,849.0,,,75.0,35.0,35.0,1.0,1000.0,M-L,0.0,M,L,2.0,3.0,basketball,dishwasher,basketball6,dishwasher1,55.0,20.0,/static/Size_judgement/Stimuli/Size_stims/M/basketball/basketball2.jpg,/static/Size_judgement/Stimuli/Size_stims/L/dishwasher/dishwasher10.jpg,0.0,dishwasher,basketball,L,M,3.0,2.0,dishwasher1,basketball6,1.0,110.349,0.849,0.0,
108,,size_choice_confirmation,,html-keyboard-response,108,192943,0.0-1.0-143.0-0.0,0,0,23720,,,,,,35.0,,,,,,,,,,,,,,,,,,,,,,,,,,,,111.0,0.651,,
109,,iti,,html-keyboard-response,109,193944,0.0-1.0-144.0,0,0,23720,,,,,,,,,,,,,,,,,,,,,,,,,,,,,,,,,,112.0,1.0,,
110,,size_choice,,html-keyboard-response,110,195109,0.0-1.0-146.0,0,0,23720,,1164.0,,,68.0,36.0,36.0,1.0,1500.0,M-XL,1.0,XL,M,4.0,2.0,tractor,ketchup,tractor10,ketchup6,189.0,95.0,/static/Size_judgement/Stimuli/Size_stims/XL/tractor/tractor8.jpg,/static/Size_judgement/Stimuli/Size_stims/M/ketchup/ketchup1.jpg,1.0,tractor,ketchup,XL,M,4.0,2.0,tractor10,ketchup6,1.0,113.164,1.164,0.0,
111,,size_choice_confirmation,,html-keyboard-response,111,195446,0.0-1.0-147.0-0.0,0,0,23720,,,,,,36.0,,,,,,,,,,,,,,,,,,,,,,,,,,,,113.5,0.336,,
112,,iti,,html-keyboard-response,112,196948,0.0-1.0-148.0,0,0,23720,,,,,,,,,,,,,,,,,,,,,,,,,,,,,,,,,,115.0,1.5,,
113,,size_choice,,html-keyboard-response,113,197966,0.0-1.0-150.0,0,0,23720,,1017.0,,,75.0,37.0,37.0,1.0,3500.0,XL-XL,,XL,XL,4.0,4.0,crane,car,crane10,car8,169.0,157.0,/static/Size_judgement/Stimuli/Size_stims/XL/crane/crane9.jpg,/static/Size_judgement/Stimuli/Size_stims/XL/car/car14.jpg,0.0,car,crane,XL,XL,4.0,4.0,car8,crane10,,116.017,1.017,0.0,
114,,size_choice_confirmation,,html-keyboard-response,114,198449,0.0-1.0-151.0-0.0,0,0,23720,,,,,,37.0,,,,,,,,,,,,,,,,,,,,,,,,,,,,116.5,0.483,,
115,,iti,,html-keyboard-response,115,201951,0.0-1.0-152.0,0,0,23720,,,,,,,,,,,,,,,,,,,,,,,,,,,,,,,,,,120.0,3.5,,
116,,size_choice,,html-keyboard-response,116,202848,0.0-1.0-154.0,0,0,23720,,897.0,,,68.0,38.0,38.0,1.0,1500.0,L-L,,L,L,3.0,3.0,dishwasher,garbagecan,dishwasher5,garbagecan5,24.0,34.0,/static/Size_judgement/Stimuli/Size_stims/L/dishwasher/dishwasher4.jpg,/static/Size_judgement/Stimuli/Size_stims/L/garbagecan/garbagecan3.jpg,1.0,dishwasher,garbagecan,L,L,3.0,3.0,dishwasher5,garbagecan5,,120.897,0.897,0.0,
117,,size_choice_confirmation,,html-keyboard-response,117,203454,0.0-1.0-155.0-0.0,0,0,23720,,,,,,38.0,,,,,,,,,,,,,,,,,,,,,,,,,,,,121.5,0.603,,
118,,iti,,html-keyboard-response,118,204955,0.0-1.0-156.0,0,0,23720,,,,,,,,,,,,,,,,,,,,,,,,,,,,,,,,,,123.0,1.5,,
119,,size_choice,,html-keyboard-response,119,206031,0.0-1.0-158.0,0,0,23720,,1076.0,,,68.0,39.0,39.0,1.0,2000.0,L-L,,L,L,3.0,3.0,dishwasher,cooler,dishwasher10,cooler6,29.0,5.0,/static/Size_judgement/Stimuli/Size_stims/L/dishwasher/dishwasher1.jpg,/static/Size_judgement/Stimuli/Size_stims/L/cooler/cooler1.jpg,1.0,dishwasher,cooler,L,L,3.0,3.0,dishwasher10,cooler6,,124.076,1.076,0.0,
120,,size_choice_confirmation,,html-keyboard-response,120,206457,0.0-1.0-159.0-0.0,0,0,23720,,,,,,39.0,,,,,,,,,,,,,,,,,,,,,,,,,,,,124.5,0.424,,
121,,iti,,html-keyboard-response,121,208464,0.0-1.0-160.0,0,0,23720,,,,,,,,,,,,,,,,,,,,,,,,,,,,,,,,,,126.5,2.0,,
122,,size_choice,,html-keyboard-response,122,209534,0.0-1.0-162.0,0,0,23720,,1070.0,,,75.0,40.0,40.0,1.0,1500.0,S-M,0.0,S,M,1.0,2.0,screws,handsaw,screws3,handsaw3,122.0,82.0,/static/Size_judgement/Stimuli/Size_stims/S/screws/screws7.jpg,/static/Size_judgement/Stimuli/Size_stims/M/handsaw/handsaw2.jpg,0.0,handsaw,screws,M,S,2.0,1.0,handsaw3,screws3,1.0,127.57,1.07,0.0,
123,,size_choice_confirmation,,html-keyboard-response,123,209965,0.0-1.0-163.0-0.0,0,0,23720,,,,,,40.0,,,,,,,,,,,,,,,,,,,,,,,,,,,,128.0,0.43,,
124,,iti,,html-keyboard-response,124,211466,0.0-1.0-164.0,0,0,23720,,,,,,,,,,,,,,,,,,,,,,,,,,,,,,,,,,129.5,1.5,,
125,,size_choice,,html-keyboard-response,125,212565,0.0-1.0-166.0,0,0,23720,,1098.0,,,68.0,41.0,41.0,1.0,3500.0,S-L,1.0,L,S,3.0,1.0,deskchair,thread,deskchair5,thread6,14.0,145.0,/static/Size_judgement/Stimuli/Size_stims/L/deskchair/deskchair7.jpg,/static/Size_judgement/Stimuli/Size_stims/S/thread/thread2.jpg,1.0,deskchair,thread,L,S,3.0,1.0,deskchair5,thread6,1.0,130.598,1.098,0.0,
126,,size_choice_confirmation,,html-keyboard-response,126,212969,0.0-1.0-167.0-0.0,0,0,23720,,,,,,41.0,,,,,,,,,,,,,,,,,,,,,,,,,,,,131.0,0.402,,
127,,iti,,html-keyboard-response,127,216471,0.0-1.0-168.0,0,0,23720,,,,,,,,,,,,,,,,,,,,,,,,,,,,,,,,,,134.5,3.5,,
128,,size_choice,,html-keyboard-response,128,217354,0.0-1.0-170.0,0,0,23720,,881.0,,,75.0,42.0,42.0,1.0,1000.0,S-M,0.0,S,M,1.0,2.0,paperclip,basketball,paperclip7,basketball8,116.0,57.0,/static/Size_judgement/Stimuli/Size_stims/S/paperclip/paperclip7.jpg,/static/Size_judgement/Stimuli/Size_stims/M/basketball/basketball7.jpg,0.0,basketball,paperclip,M,S,2.0,1.0,basketball8,paperclip7,1.0,135.381,0.881,0.0,
129,,size_choice_confirmation,,html-keyboard-response,129,217974,0.0-1.0-171.0-0.0,0,0,23720,,,,,,42.0,,,,,,,,,,,,,,,,,,,,,,,,,,,,136.0,0.619,,
130,,iti,,html-keyboard-response,130,218976,0.0-1.0-172.0,0,0,23720,,,,,,,,,,,,,,,,,,,,,,,,,,,,,,,,,,137.0,1.0,,
131,,size_choice,,html-keyboard-response,131,220209,0.0-1.0-174.0,0,0,23720,,1233.0,,,68.0,43.0,43.0,1.0,1000.0,S-L,1.0,L,S,3.0,1.0,deskchair,paperclip,deskchair1,paperclip5,10.0,114.0,/static/Size_judgement/Stimuli/Size_stims/L/deskchair/deskchair9.jpg,/static/Size_judgement/Stimuli/Size_stims/S/paperclip/paperclip2.jpg,1.0,deskchair,paperclip,L,S,3.0,1.0,deskchair1,paperclip5,1.0,138.233,1.233,0.0,
132,,size_choice_confirmation,,html-keyboard-response,132,220479,0.0-1.0-175.0-0.0,0,0,23720,,,,,,43.0,,,,,,,,,,,,,,,,,,,,,,,,,,,,138.5,0.267,,
133,,iti,,html-keyboard-response,133,221480,0.0-1.0-176.0,0,0,23720,,,,,,,,,,,,,,,,,,,,,,,,,,,,,,,,,,139.5,1.0,,
134,,size_choice,,html-keyboard-response,134,222510,0.0-1.0-178.0,0,0,23720,,1029.0,,,68.0,44.0,44.0,1.0,1000.0,L-XL,0.0,L,XL,3.0,4.0,dishwasher,van,dishwasher2,van9,21.0,198.0,/static/Size_judgement/Stimuli/Size_stims/L/dishwasher/dishwasher9.jpg,/static/Size_judgement/Stimuli/Size_stims/XL/van/van9.jpg,1.0,dishwasher,van,L,XL,3.0,4.0,dishwasher2,van9,0.0,140.529,1.029,0.0,
135,,size_choice_confirmation,,html-keyboard-response,135,222983,0.0-1.0-179.0-0.0,0,0,23720,,,,,,44.0,,,,,,,,,,,,,,,,,,,,,,,,,,,,141.0,0.471,,
136,,iti,,html-keyboard-response,136,223985,0.0-1.0-180.0,0,0,23720,,,,,,,,,,,,,,,,,,,,,,,,,,,,,,,,,,142.0,1.0,,
137,,block_over,,html-keyboard-response,137,243260,0.0-1.0-181.0-0.0,0,0,23720,,19275.0,,,68.0,44.0,,,,,,,,,,,,,,,,,,,,,,,,,,,,,,,
138,,size_choice,,html-keyboard-response,138,243939,0.0-1.0-182.0,0,0,23720,,678.0,,,75.0,45.0,45.0,2.0,2000.0,S-L,0.0,S,L,1.0,3.0,die,mailbox,die5,mailbox2,104.0,41.0,/static/Size_judgement/Stimuli/Size_stims/S/die/die3.jpg,/static/Size_judgement/Stimuli/Size_stims/L/mailbox/mailbox2.jpg,0.0,mailbox,die,L,S,3.0,1.0,mailbox2,die5,1.0,142.678,0.678,0.0,
139,,size_choice_confirmation,,html-keyboard-response,139,244763,0.0-1.0-183.0-0.0,0,0,23720,,,,,,45.0,,,,,,,,,,,,,,,,,,,,,,,,,,,,143.5,0.822,,
140,,iti,,html-keyboard-response,140,246765,0.0-1.0-184.0,0,0,23720,,,,,,,,,,,,,,,,,,,,,,,,,,,,,,,,,,145.5,2.0,,
141,,size_choice,,html-keyboard-response,141,247607,0.0-1.0-186.0,0,0,23720,,842.0,,,68.0,46.0,46.0,2.0,1000.0,S-L,1.0,L,S,3.0,1.0,deskchair,thread,deskchair3,thread10,12.0,149.0,/static/Size_judgement/Stimuli/Size_stims/L/deskchair/deskchair10.jpg,/static/Size_judgement/Stimuli/Size_stims/S/thread/thread9.jpg,1.0,deskchair,thread,L,S,3.0,1.0,deskchair3,thread10,1.0,146.342,0.842,0.0,
142,,size_choice_confirmation,,html-keyboard-response,142,248266,0.0-1.0-187.0-0.0,0,0,23720,,,,,,46.0,,,,,,,,,,,,,,,,,,,,,,,,,,,,147.0,0.658,,
143,,iti,,html-keyboard-response,143,249268,0.0-1.0-188.0,0,0,23720,,,,,,,,,,,,,,,,,,,,,,,,,,,,,,,,,,148.0,1.0,,
144,,size_choice,,html-keyboard-response,144,250346,0.0-1.0-190.0,0,0,23720,,1078.0,,,68.0,47.0,47.0,2.0,3500.0,M-L,1.0,L,M,3.0,2.0,garbagecan,handsaw,garbagecan1,handsaw9,30.0,88.0,/static/Size_judgement/Stimuli/Size_stims/L/garbagecan/garbagecan4.jpg,/static/Size_judgement/Stimuli/Size_stims/M/handsaw/handsaw6.jpg,1.0,garbagecan,handsaw,L,M,3.0,2.0,garbagecan1,handsaw9,1.0,149.078,1.078,0.0,
145,,size_choice_confirmation,,html-keyboard-response,145,250770,0.0-1.0-191.0-0.0,0,0,23720,,,,,,47.0,,,,,,,,,,,,,,,,,,,,,,,,,,,,149.5,0.422,,
146,,iti,,html-keyboard-response,146,254271,0.0-1.0-192.0,0,0,23720,,,,,,,,,,,,,,,,,,,,,,,,,,,,,,,,,,153.0,3.5,,
147,,size_choice,,html-keyboard-response,147,255709,0.0-1.0-194.0,0,0,23720,,1438.0,,,68.0,48.0,48.0,2.0,1000.0,M-M,,M,M,2.0,2.0,coffeemaker,hairdryer,coffeemaker7,hairdryer5,66.0,74.0,/static/Size_judgement/Stimuli/Size_stims/M/coffeemaker/coffeemaker9.jpg,/static/Size_judgement/Stimuli/Size_stims/M/hairdryer/hairdryer15.jpg,1.0,coffeemaker,hairdryer,M,M,2.0,2.0,coffeemaker7,hairdryer5,,154.438,1.438,0.0,
148,,size_choice_confirmation,,html-keyboard-response,148,255774,0.0-1.0-195.0-0.0,0,0,23720,,,,,,48.0,,,,,,,,,,,,,,,,,,,,,,,,,,,,154.5,0.062,,
149,,iti,,html-keyboard-response,149,256775,0.0-1.0-196.0,0,0,23720,,,,,,,,,,,,,,,,,,,,,,,,,,,,,,,,,,155.5,1.0,,
150,,size_choice,,html-keyboard-response,150,257794,0.0-1.0-198.0,0,0,23720,,1018.0,,,68.0,49.0,49.0,2.0,2000.0,S-XL,1.0,XL,S,4.0,1.0,crane,thread,crane3,thread4,162.0,143.0,/static/Size_judgement/Stimuli/Size_stims/XL/crane/crane4.jpg,/static/Size_judgement/Stimuli/Size_stims/S/thread/thread5.jpg,1.0,crane,thread,XL,S,4.0,1.0,crane3,thread4,1.0,156.518,1.018,0.0,
151,,size_choice_confirmation,,html-keyboard-response,151,258277,0.0-1.0-199.0-0.0,0,0,23720,,,,,,49.0,,,,,,,,,,,,,,,,,,,,,,,,,,,,157.0,0.482,,
152,,iti,,html-keyboard-response,152,260279,0.0-1.0-200.0,0,0,23720,,,,,,,,,,,,,,,,,,,,,,,,,,,,,,,,,,159.0,2.0,,
153,,size_choice,,html-keyboard-response,153,261127,0.0-1.0-202.0,0,0,23720,,847.0,,,68.0,50.0,50.0,2.0,1000.0,S-XL,1.0,XL,S,4.0,1.0,tractor,die,tractor7,die9,186.0,108.0,/static/Size_judgement/Stimuli/Size_stims/XL/tractor/tractor2.jpg,/static/Size_judgement/Stimuli/Size_stims/S/die/die7.jpg,1.0,tractor,die,XL,S,4.0,1.0,tractor7,die9,1.0,159.847,0.847,0.0,
154,,size_choice_confirmation,,html-keyboard-response,154,261782,0.0-1.0-203.0-0.0,0,0,23720,,,,,,50.0,,,,,,,,,,,,,,,,,,,,,,,,,,,,160.5,0.653,,
155,,iti,,html-keyboard-response,155,262783,0.0-1.0-204.0,0,0,23720,,,,,,,,,,,,,,,,,,,,,,,,,,,,,,,,,,161.5,1.0,,
156,,size_choice,,html-keyboard-response,156,263619,0.0-1.0-206.0,0,0,23720,,835.0,,,68.0,51.0,51.0,2.0,2000.0,S-L,1.0,L,S,3.0,1.0,cooler,thread,cooler1,thread2,0.0,141.0,/static/Size_judgement/Stimuli/Size_stims/L/cooler/cooler8.jpg,/static/Size_judgement/Stimuli/Size_stims/S/thread/thread6.jpg,1.0,cooler,thread,L,S,3.0,1.0,cooler1,thread2,1.0,162.335,0.835,0.0,
157,,size_choice_confirmation,,html-keyboard-response,157,264293,0.0-1.0-207.0-0.0,0,0,23720,,,,,,51.0,,,,,,,,,,,,,,,,,,,,,,,,,,,,163.0,0.665,,
158,,iti,,html-keyboard-response,158,266295,0.0-1.0-208.0,0,0,23720,,,,,,,,,,,,,,,,,,,,,,,,,,,,,,,,,,165.0,2.0,,
159,,size_choice,,html-keyboard-response,159,266980,0.0-1.0-210.0,0,0,23720,,685.0,,,75.0,52.0,52.0,2.0,1000.0,M-L,0.0,M,L,2.0,3.0,handsaw,mailbox,handsaw8,mailbox4,87.0,43.0,/static/Size_judgement/Stimuli/Size_stims/M/handsaw/handsaw7.jpg,/static/Size_judgement/Stimuli/Size_stims/L/mailbox/mailbox5.jpg,0.0,mailbox,handsaw,L,M,3.0,2.0,mailbox4,handsaw8,1.0,165.685,0.685,0.0,
160,,size_choice_confirmation,,html-keyboard-response,160,267797,0.0-1.0-211.0-0.0,0,0,23720,,,,,,52.0,,,,,,,,,,,,,,,,,,,,,,,,,,,,166.5,0.815,,
161,,iti,,html-keyboard-response,161,268798,0.0-1.0-212.0,0,0,23720,,,,,,,,,,,,,,,,,,,,,,,,,,,,,,,,,,167.5,1.0,,
162,,size_choice,,html-keyboard-response,162,269548,0.0-1.0-214.0,0,0,23720,,748.0,,,68.0,53.0,53.0,2.0,1000.0,S-XL,1.0,XL,S,4.0,1.0,crane,thread,crane9,thread5,168.0,144.0,/static/Size_judgement/Stimuli/Size_stims/XL/crane/crane8.jpg,/static/Size_judgement/Stimuli/Size_stims/S/thread/thread1.jpg,1.0,crane,thread,XL,S,4.0,1.0,crane9,thread5,1.0,168.248,0.748,0.0,
163,,size_choice_confirmation,,html-keyboard-response,163,270301,0.0-1.0-215.0-0.0,0,0,23720,,,,,,53.0,,,,,,,,,,,,,,,,,,,,,,,,,,,,169.0,0.752,,
164,,iti,,html-keyboard-response,164,271304,0.0-1.0-216.0,0,0,23720,,,,,,,,,,,,,,,,,,,,,,,,,,,,,,,,,,170.0,1.0,,
165,,size_choice,,html-keyboard-response,165,272195,0.0-1.0-218.0,0,0,23720,,890.0,,,75.0,54.0,54.0,2.0,2000.0,XL-XL,,XL,XL,4.0,4.0,tractor,van,tractor1,van10,180.0,199.0,/static/Size_judgement/Stimuli/Size_stims/XL/tractor/tractor6.jpg,/static/Size_judgement/Stimuli/Size_stims/XL/van/van8.jpg,0.0,van,tractor,XL,XL,4.0,4.0,van10,tractor1,,170.89,0.89,0.0,
166,,size_choice_confirmation,,html-keyboard-response,166,272807,0.0-1.0-219.0-0.0,0,0,23720,,,,,,54.0,,,,,,,,,,,,,,,,,,,,,,,,,,,,171.5,0.61,,
167,,iti,,html-keyboard-response,167,274808,0.0-1.0-220.0,0,0,23720,,,,,,,,,,,,,,,,,,,,,,,,,,,,,,,,,,173.5,2.0,,
168,,size_choice,,html-keyboard-response,168,276004,0.0-1.0-222.0,0,0,23720,,1195.0,,,75.0,55.0,55.0,2.0,1500.0,S-S,,S,S,1.0,1.0,paperclip,teabag,paperclip8,teabag2,117.0,131.0,/static/Size_judgement/Stimuli/Size_stims/S/paperclip/paperclip5.jpg,/static/Size_judgement/Stimuli/Size_stims/S/teabag/teabag8.jpg,0.0,teabag,paperclip,S,S,1.0,1.0,teabag2,paperclip8,,174.695,1.195,0.0,
169,,size_choice_confirmation,,html-keyboard-response,169,276311,0.0-1.0-223.0-0.0,0,0,23720,,,,,,55.0,,,,,,,,,,,,,,,,,,,,,,,,,,,,175.0,0.305,,
170,,iti,,html-keyboard-response,170,277812,0.0-1.0-224.0,0,0,23720,,,,,,,,,,,,,,,,,,,,,,,,,,,,,,,,,,176.5,1.5,,
171,,size_choice,,html-keyboard-response,171,278407,0.0-1.0-226.0,0,0,23720,,595.0,,,68.0,56.0,56.0,2.0,1500.0,S-XL,1.0,XL,S,4.0,1.0,crane,screws,crane8,screws2,167.0,121.0,/static/Size_judgement/Stimuli/Size_stims/XL/crane/crane10.jpg,/static/Size_judgement/Stimuli/Size_stims/S/screws/screws5.jpg,1.0,crane,screws,XL,S,4.0,1.0,crane8,screws2,1.0,177.095,0.595,0.0,
172,,size_choice_confirmation,,html-keyboard-response,172,279314,0.0-1.0-227.0-0.0,0,0,23720,,,,,,56.0,,,,,,,,,,,,,,,,,,,,,,,,,,,,178.0,0.905,,
173,,iti,,html-keyboard-response,173,280815,0.0-1.0-228.0,0,0,23720,,,,,,,,,,,,,,,,,,,,,,,,,,,,,,,,,,179.5,1.5,,
174,,size_choice,,html-keyboard-response,174,281969,0.0-1.0-230.0,0,0,23720,,1154.0,,,68.0,57.0,57.0,2.0,1000.0,L-L,,L,L,3.0,3.0,dishwasher,cooler,dishwasher4,cooler3,23.0,2.0,/static/Size_judgement/Stimuli/Size_stims/L/dishwasher/dishwasher5.jpg,/static/Size_judgement/Stimuli/Size_stims/L/cooler/cooler2.jpg,1.0,dishwasher,cooler,L,L,3.0,3.0,dishwasher4,cooler3,,180.654,1.154,0.0,
175,,size_choice_confirmation,,html-keyboard-response,175,282317,0.0-1.0-231.0-0.0,0,0,23720,,,,,,57.0,,,,,,,,,,,,,,,,,,,,,,,,,,,,181.0,0.346,,
176,,iti,,html-keyboard-response,176,283319,0.0-1.0-232.0,0,0,23720,,,,,,,,,,,,,,,,,,,,,,,,,,,,,,,,,,182.0,1.0,,
177,,size_choice,,html-keyboard-response,177,283924,0.0-1.0-234.0,0,0,23720,,604.0,,,75.0,58.0,58.0,2.0,3000.0,M-XL,0.0,M,XL,2.0,4.0,coffeemaker,van,coffeemaker9,van4,68.0,193.0,/static/Size_judgement/Stimuli/Size_stims/M/coffeemaker/coffeemaker7.jpg,/static/Size_judgement/Stimuli/Size_stims/XL/van/van7.jpg,0.0,van,coffeemaker,XL,M,4.0,2.0,van4,coffeemaker9,1.0,182.604,0.604,0.0,
178,,size_choice_confirmation,,html-keyboard-response,178,284827,0.0-1.0-235.0-0.0,0,0,23720,,,,,,58.0,,,,,,,,,,,,,,,,,,,,,,,,,,,,183.5,0.896,,
179,,iti,,html-keyboard-response,179,287828,0.0-1.0-236.0,0,0,23720,,,,,,,,,,,,,,,,,,,,,,,,,,,,,,,,,,186.5,3.0,,
180,,size_choice,,html-keyboard-response,180,288566,0.0-1.0-238.0,0,0,23720,,737.0,,,75.0,59.0,59.0,2.0,2000.0,M-L,0.0,M,L,2.0,3.0,coffeemaker,cooler,coffeemaker3,cooler7,62.0,6.0,/static/Size_judgement/Stimuli/Size_stims/M/coffeemaker/coffeemaker13.jpg,/static/Size_judgement/Stimuli/Size_stims/L/cooler/cooler4.jpg,0.0,cooler,coffeemaker,L,M,3.0,2.0,cooler7,coffeemaker3,1.0,187.237,0.737,0.0,
181,,size_choice_confirmation,,html-keyboard-response,181,289331,0.0-1.0-239.0-0.0,0,0,23720,,,,,,59.0,,,,,,,,,,,,,,,,,,,,,,,,,,,,188.0,0.763,,
182,,iti,,html-keyboard-response,182,291333,0.0-1.0-240.0,0,0,23720,,,,,,,,,,,,,,,,,,,,,,,,,,,,,,,,,,190.0,2.0,,
183,,size_choice,,html-keyboard-response,183,292271,0.0-1.0-242.0,0,0,23720,,938.0,,,68.0,60.0,60.0,2.0,2000.0,S-L,1.0,L,S,3.0,1.0,cooler,screws,cooler4,screws5,3.0,124.0,/static/Size_judgement/Stimuli/Size_stims/L/cooler/cooler3.jpg,/static/Size_judgement/Stimuli/Size_stims/S/screws/screws2.jpg,1.0,cooler,screws,L,S,3.0,1.0,cooler4,screws5,1.0,190.938,0.938,0.0,
184,,size_choice_confirmation,,html-keyboard-response,184,292835,0.0-1.0-243.0-0.0,0,0,23720,,,,,,60.0,,,,,,,,,,,,,,,,,,,,,,,,,,,,191.5,0.562,,
185,,iti,,html-keyboard-response,185,294837,0.0-1.0-244.0,0,0,23720,,,,,,,,,,,,,,,,,,,,,,,,,,,,,,,,,,193.5,2.0,,
186,,size_choice,,html-keyboard-response,186,295319,0.0-1.0-246.0,0,0,23720,,482.0,,,75.0,61.0,61.0,2.0,1500.0,M-XL,0.0,M,XL,2.0,4.0,handsaw,car,handsaw7,car3,86.0,152.0,/static/Size_judgement/Stimuli/Size_stims/M/handsaw/handsaw5.jpg,/static/Size_judgement/Stimuli/Size_stims/XL/car/car4.jpg,0.0,car,handsaw,XL,M,4.0,2.0,car3,handsaw7,1.0,193.982,0.482,0.0,
187,,size_choice_confirmation,,html-keyboard-response,187,296340,0.0-1.0-247.0-0.0,0,0,23720,,,,,,61.0,,,,,,,,,,,,,,,,,,,,,,,,,,,,195.0,1.018,,
188,,iti,,html-keyboard-response,188,297842,0.0-1.0-248.0,0,0,23720,,,,,,,,,,,,,,,,,,,,,,,,,,,,,,,,,,196.5,1.5,,
189,,size_choice,,html-keyboard-response,189,298431,0.0-1.0-250.0,0,0,23720,,588.0,,,75.0,62.0,62.0,2.0,1000.0,M-XL,0.0,M,XL,2.0,4.0,handsaw,tractor,handsaw1,tractor4,80.0,183.0,/static/Size_judgement/Stimuli/Size_stims/M/handsaw/handsaw8.jpg,/static/Size_judgement/Stimuli/Size_stims/XL/tractor/tractor4.jpg,0.0,tractor,handsaw,XL,M,4.0,2.0,tractor4,handsaw1,1.0,197.088,0.588,0.0,
190,,size_choice_confirmation,,html-keyboard-response,190,299345,0.0-1.0-251.0-0.0,0,0,23720,,,,,,62.0,,,,,,,,,,,,,,,,,,,,,,,,,,,,198.0,0.912,,
191,,iti,,html-keyboard-response,191,300347,0.0-1.0-252.0,0,0,23720,,,,,,,,,,,,,,,,,,,,,,,,,,,,,,,,,,199.0,1.0,,
192,,size_choice,,html-keyboard-response,192,301047,0.0-1.0-254.0,0,0,23720,,698.0,,,68.0,63.0,63.0,2.0,1500.0,S-L,1.0,L,S,3.0,1.0,dishwasher,teabag,dishwasher9,teabag7,28.0,136.0,/static/Size_judgement/Stimuli/Size_stims/L/dishwasher/dishwasher2.jpg,/static/Size_judgement/Stimuli/Size_stims/S/teabag/teabag10.jpg,1.0,dishwasher,teabag,L,S,3.0,1.0,dishwasher9,teabag7,1.0,199.698,0.698,0.0,
193,,size_choice_confirmation,,html-keyboard-response,193,301851,0.0-1.0-255.0-0.0,0,0,23720,,,,,,63.0,,,,,,,,,,,,,,,,,,,,,,,,,,,,200.5,0.802,,
194,,iti,,html-keyboard-response,194,303353,0.0-1.0-256.0,0,0,23720,,,,,,,,,,,,,,,,,,,,,,,,,,,,,,,,,,202.0,1.5,,
195,,size_choice,,html-keyboard-response,195,304216,0.0-1.0-258.0,0,0,23720,,862.0,,,68.0,64.0,64.0,2.0,3500.0,M-XL,1.0,XL,M,4.0,2.0,crane,coffeemaker,crane5,coffeemaker2,164.0,61.0,/static/Size_judgement/Stimuli/Size_stims/XL/crane/crane1.jpg,/static/Size_judgement/Stimuli/Size_stims/M/coffeemaker/coffeemaker12.jpg,1.0,crane,coffeemaker,XL,M,4.0,2.0,crane5,coffeemaker2,1.0,202.862,0.862,0.0,
196,,size_choice_confirmation,,html-keyboard-response,196,304856,0.0-1.0-259.0-0.0,0,0,23720,,,,,,64.0,,,,,,,,,,,,,,,,,,,,,,,,,,,,203.5,0.638,,
197,,iti,,html-keyboard-response,197,308358,0.0-1.0-260.0,0,0,23720,,,,,,,,,,,,,,,,,,,,,,,,,,,,,,,,,,207.0,3.5,,
198,,size_choice,,html-keyboard-response,198,309271,0.0-1.0-262.0,0,0,23720,,912.0,,,68.0,65.0,65.0,2.0,1500.0,XL-XL,,XL,XL,4.0,4.0,tractor,van,tractor9,van6,188.0,195.0,/static/Size_judgement/Stimuli/Size_stims/XL/tractor/tractor9.jpg,/static/Size_judgement/Stimuli/Size_stims/XL/van/van2.jpg,1.0,tractor,van,XL,XL,4.0,4.0,tractor9,van6,,207.912,0.912,0.0,
199,,size_choice_confirmation,,html-keyboard-response,199,309861,0.0-1.0-263.0-0.0,0,0,23720,,,,,,65.0,,,,,,,,,,,,,,,,,,,,,,,,,,,,208.5,0.588,,
200,,iti,,html-keyboard-response,200,311363,0.0-1.0-264.0,0,0,23720,,,,,,,,,,,,,,,,,,,,,,,,,,,,,,,,,,210.0,1.5,,
201,,size_choice,,html-keyboard-response,201,312029,0.0-1.0-266.0,0,0,23720,,666.0,,,75.0,66.0,66.0,2.0,2000.0,S-M,0.0,S,M,1.0,2.0,teabag,hairdryer,teabag6,hairdryer1,135.0,70.0,/static/Size_judgement/Stimuli/Size_stims/S/teabag/teabag6.jpg,/static/Size_judgement/Stimuli/Size_stims/M/hairdryer/hairdryer11.jpg,0.0,hairdryer,teabag,M,S,2.0,1.0,hairdryer1,teabag6,1.0,210.666,0.666,0.0,
202,,size_choice_confirmation,,html-keyboard-response,202,312865,0.0-1.0-267.0-0.0,0,0,23720,,,,,,66.0,,,,,,,,,,,,,,,,,,,,,,,,,,,,211.5,0.834,,
203,,iti,,html-keyboard-response,203,314867,0.0-1.0-268.0,0,0,23720,,,,,,,,,,,,,,,,,,,,,,,,,,,,,,,,,,213.5,2.0,,
204,,size_choice,,html-keyboard-response,204,315709,0.0-1.0-270.0,0,0,23720,,842.0,,,68.0,67.0,67.0,2.0,1500.0,S-L,1.0,L,S,3.0,1.0,garbagecan,die,garbagecan8,die7,37.0,106.0,/static/Size_judgement/Stimuli/Size_stims/L/garbagecan/garbagecan13.jpg,/static/Size_judgement/Stimuli/Size_stims/S/die/die4.jpg,1.0,garbagecan,die,L,S,3.0,1.0,garbagecan8,die7,1.0,214.342,0.842,0.0,
205,,size_choice_confirmation,,html-keyboard-response,205,316370,0.0-1.0-271.0-0.0,0,0,23720,,,,,,67.0,,,,,,,,,,,,,,,,,,,,,,,,,,,,215.0,0.658,,
206,,iti,,html-keyboard-response,206,317871,0.0-1.0-272.0,0,0,23720,,,,,,,,,,,,,,,,,,,,,,,,,,,,,,,,,,216.5,1.5,,
207,,size_choice,,html-keyboard-response,207,318448,0.0-1.0-274.0,0,0,23720,,576.0,,,75.0,68.0,68.0,2.0,1500.0,S-M,0.0,S,M,1.0,2.0,thread,basketball,thread1,basketball2,140.0,51.0,/static/Size_judgement/Stimuli/Size_stims/S/thread/thread7.jpg,/static/Size_judgement/Stimuli/Size_stims/M/basketball/basketball8.jpg,0.0,basketball,thread,M,S,2.0,1.0,basketball2,thread1,1.0,217.076,0.576,0.0,
208,,size_choice_confirmation,,html-keyboard-response,208,319374,0.0-1.0-275.0-0.0,0,0,23720,,,,,,68.0,,,,,,,,,,,,,,,,,,,,,,,,,,,,218.0,0.924,,
209,,iti,,html-keyboard-response,209,320875,0.0-1.0-276.0,0,0,23720,,,,,,,,,,,,,,,,,,,,,,,,,,,,,,,,,,219.5,1.5,,
210,,size_choice,,html-keyboard-response,210,321502,0.0-1.0-278.0,0,0,23720,,627.0,,,75.0,69.0,69.0,2.0,1000.0,S-L,0.0,S,L,1.0,3.0,die,dishwasher,die8,dishwasher3,107.0,22.0,/static/Size_judgement/Stimuli/Size_stims/S/die/die5.jpg,/static/Size_judgement/Stimuli/Size_stims/L/dishwasher/dishwasher8.jpg,0.0,dishwasher,die,L,S,3.0,1.0,dishwasher3,die8,1.0,220.127,0.627,0.0,
211,,size_choice_confirmation,,html-keyboard-response,211,322377,0.0-1.0-279.0-0.0,0,0,23720,,,,,,69.0,,,,,,,,,,,,,,,,,,,,,,,,,,,,221.0,0.873,,
212,,iti,,html-keyboard-response,212,323378,0.0-1.0-280.0,0,0,23720,,,,,,,,,,,,,,,,,,,,,,,,,,,,,,,,,,222.0,1.0,,
213,,size_choice,,html-keyboard-response,213,323949,0.0-1.0-282.0,0,0,23720,,570.0,,,68.0,70.0,70.0,2.0,1500.0,S-XL,1.0,XL,S,4.0,1.0,van,thread,van1,thread9,190.0,148.0,/static/Size_judgement/Stimuli/Size_stims/XL/van/van5.jpg,/static/Size_judgement/Stimuli/Size_stims/S/thread/thread8.jpg,1.0,van,thread,XL,S,4.0,1.0,van1,thread9,1.0,222.57,0.57,0.0,
214,,size_choice_confirmation,,html-keyboard-response,214,324881,0.0-1.0-283.0-0.0,0,0,23720,,,,,,70.0,,,,,,,,,,,,,,,,,,,,,,,,,,,,223.5,0.93,,
215,,iti,,html-keyboard-response,215,326383,0.0-1.0-284.0,0,0,23720,,,,,,,,,,,,,,,,,,,,,,,,,,,,,,,,,,225.0,1.5,,
216,,size_choice,,html-keyboard-response,216,326891,0.0-1.0-286.0,0,0,23720,,508.0,,,75.0,71.0,71.0,2.0,3500.0,M-L,0.0,M,L,2.0,3.0,basketball,deskchair,basketball9,deskchair2,58.0,11.0,/static/Size_judgement/Stimuli/Size_stims/M/basketball/basketball5.jpg,/static/Size_judgement/Stimuli/Size_stims/L/deskchair/deskchair8.jpg,0.0,deskchair,basketball,L,M,3.0,2.0,deskchair2,basketball9,1.0,225.508,0.508,0.0,
217,,size_choice_confirmation,,html-keyboard-response,217,327885,0.0-1.0-287.0-0.0,0,0,23720,,,,,,71.0,,,,,,,,,,,,,,,,,,,,,,,,,,,,226.5,0.992,,
218,,iti,,html-keyboard-response,218,331387,0.0-1.0-288.0,0,0,23720,,,,,,,,,,,,,,,,,,,,,,,,,,,,,,,,,,230.0,3.5,,
219,,size_choice,,html-keyboard-response,219,332030,0.0-1.0-290.0,0,0,23720,,642.0,,,68.0,72.0,72.0,2.0,1000.0,L-XL,1.0,XL,L,4.0,3.0,car,deskchair,car9,deskchair4,158.0,13.0,/static/Size_judgement/Stimuli/Size_stims/XL/car/car15.jpg,/static/Size_judgement/Stimuli/Size_stims/L/deskchair/deskchair6.jpg,1.0,car,deskchair,XL,L,4.0,3.0,car9,deskchair4,1.0,230.642,0.642,0.0,
220,,size_choice_confirmation,,html-keyboard-response,220,332890,0.0-1.0-291.0-0.0,0,0,23720,,,,,,72.0,,,,,,,,,,,,,,,,,,,,,,,,,,,,231.5,0.858,,
221,,iti,,html-keyboard-response,221,333891,0.0-1.0-292.0,0,0,23720,,,,,,,,,,,,,,,,,,,,,,,,,,,,,,,,,,232.5,1.0,,
222,,size_choice,,html-keyboard-response,222,335023,0.0-1.0-294.0,0,0,23720,,1132.0,,,75.0,73.0,73.0,2.0,1500.0,M-M,,M,M,2.0,2.0,hairdryer,basketball,hairdryer3,basketball3,72.0,52.0,/static/Size_judgement/Stimuli/Size_stims/M/hairdryer/hairdryer17.jpg,/static/Size_judgement/Stimuli/Size_stims/M/basketball/basketball10.jpg,0.0,basketball,hairdryer,M,M,2.0,2.0,basketball3,hairdryer3,,233.632,1.132,0.0,
223,,size_choice_confirmation,,html-keyboard-response,223,335393,0.0-1.0-295.0-0.0,0,0,23720,,,,,,73.0,,,,,,,,,,,,,,,,,,,,,,,,,,,,234.0,0.368,,
224,,iti,,html-keyboard-response,224,336895,0.0-1.0-296.0,0,0,23720,,,,,,,,,,,,,,,,,,,,,,,,,,,,,,,,,,235.5,1.5,,
225,,size_choice,,html-keyboard-response,225,337586,0.0-1.0-298.0,0,0,23720,,690.0,,,75.0,74.0,74.0,2.0,1500.0,S-XL,0.0,S,XL,1.0,4.0,paperclip,crane,paperclip10,crane1,119.0,160.0,/static/Size_judgement/Stimuli/Size_stims/S/paperclip/paperclip10.jpg,/static/Size_judgement/Stimuli/Size_stims/XL/crane/crane7.jpg,0.0,crane,paperclip,XL,S,4.0,1.0,crane1,paperclip10,1.0,236.19,0.69,0.0,
226,,size_choice_confirmation,,html-keyboard-response,226,338397,0.0-1.0-299.0-0.0,0,0,23720,,,,,,74.0,,,,,,,,,,,,,,,,,,,,,,,,,,,,237.0,0.81,,
227,,iti,,html-keyboard-response,227,339899,0.0-1.0-300.0,0,0,23720,,,,,,,,,,,,,,,,,,,,,,,,,,,,,,,,,,238.5,1.5,,
228,,size_choice,,html-keyboard-response,228,340728,0.0-1.0-302.0,0,0,23720,,827.0,,,68.0,75.0,75.0,2.0,1000.0,M-L,1.0,L,M,3.0,2.0,cooler,ketchup,cooler5,ketchup10,4.0,99.0,/static/Size_judgement/Stimuli/Size_stims/L/cooler/cooler10.jpg,/static/Size_judgement/Stimuli/Size_stims/M/ketchup/ketchup6.jpg,1.0,cooler,ketchup,L,M,3.0,2.0,cooler5,ketchup10,1.0,239.327,0.827,0.0,
229,,size_choice_confirmation,,html-keyboard-response,229,341402,0.0-1.0-303.0-0.0,0,0,23720,,,,,,75.0,,,,,,,,,,,,,,,,,,,,,,,,,,,,240.0,0.673,,
230,,iti,,html-keyboard-response,230,342404,0.0-1.0-304.0,0,0,23720,,,,,,,,,,,,,,,,,,,,,,,,,,,,,,,,,,241.0,1.0,,
231,,size_choice,,html-keyboard-response,231,343435,0.0-1.0-306.0,0,0,23720,,1030.0,,,75.0,76.0,76.0,2.0,3000.0,S-S,,S,S,1.0,1.0,screws,die,screws7,die4,126.0,103.0,/static/Size_judgement/Stimuli/Size_stims/S/screws/screws1.jpg,/static/Size_judgement/Stimuli/Size_stims/S/die/die2.jpg,0.0,die,screws,S,S,1.0,1.0,die4,screws7,,242.03,1.03,0.0,
232,,size_choice_confirmation,,html-keyboard-response,232,343907,0.0-1.0-307.0-0.0,0,0,23720,,,,,,76.0,,,,,,,,,,,,,,,,,,,,,,,,,,,,242.5,0.47,,
233,,iti,,html-keyboard-response,233,346908,0.0-1.0-308.0,0,0,23720,,,,,,,,,,,,,,,,,,,,,,,,,,,,,,,,,,245.5,3.0,,
234,,size_choice,,html-keyboard-response,234,347591,0.0-1.0-310.0,0,0,23720,,682.0,,,68.0,77.0,77.0,2.0,1000.0,L-L,,L,L,3.0,3.0,mailbox,cooler,mailbox1,cooler2,40.0,1.0,/static/Size_judgement/Stimuli/Size_stims/L/mailbox/mailbox3.jpg,/static/Size_judgement/Stimuli/Size_stims/L/cooler/cooler9.jpg,1.0,mailbox,cooler,L,L,3.0,3.0,mailbox1,cooler2,,246.182,0.682,0.0,
235,,size_choice_confirmation,,html-keyboard-response,235,348411,0.0-1.0-311.0-0.0,0,0,23720,,,,,,77.0,,,,,,,,,,,,,,,,,,,,,,,,,,,,247.0,0.818,,
236,,iti,,html-keyboard-response,236,349412,0.0-1.0-312.0,0,0,23720,,,,,,,,,,,,,,,,,,,,,,,,,,,,,,,,,,248.0,1.0,,
237,,size_choice,,html-keyboard-response,237,350161,0.0-1.0-314.0,0,0,23720,,747.0,,,68.0,78.0,78.0,2.0,1000.0,S-L,1.0,L,S,3.0,1.0,cooler,paperclip,cooler8,paperclip6,7.0,115.0,/static/Size_judgement/Stimuli/Size_stims/L/cooler/cooler5.jpg,/static/Size_judgement/Stimuli/Size_stims/S/paperclip/paperclip6.jpg,1.0,cooler,paperclip,L,S,3.0,1.0,cooler8,paperclip6,1.0,248.747,0.747,0.0,
238,,size_choice_confirmation,,html-keyboard-response,238,350916,0.0-1.0-315.0-0.0,0,0,23720,,,,,,78.0,,,,,,,,,,,,,,,,,,,,,,,,,,,,249.5,0.753,,
239,,iti,,html-keyboard-response,239,351918,0.0-1.0-316.0,0,0,23720,,,,,,,,,,,,,,,,,,,,,,,,,,,,,,,,,,250.5,1.0,,
240,,size_choice,,html-keyboard-response,240,352474,0.0-1.0-318.0,0,0,23720,,555.0,,,75.0,79.0,79.0,2.0,3000.0,S-XL,0.0,S,XL,1.0,4.0,paperclip,crane,paperclip3,crane2,112.0,161.0,/static/Size_judgement/Stimuli/Size_stims/S/paperclip/paperclip1.jpg,/static/Size_judgement/Stimuli/Size_stims/XL/crane/crane6.jpg,0.0,crane,paperclip,XL,S,4.0,1.0,crane2,paperclip3,1.0,251.055,0.555,0.0,
241,,size_choice_confirmation,,html-keyboard-response,241,353421,0.0-1.0-319.0-0.0,0,0,23720,,,,,,79.0,,,,,,,,,,,,,,,,,,,,,,,,,,,,252.0,0.945,,
242,,iti,,html-keyboard-response,242,356423,0.0-1.0-320.0,0,0,23720,,,,,,,,,,,,,,,,,,,,,,,,,,,,,,,,,,255.0,3.0,,
243,,size_choice,,html-keyboard-response,243,357018,0.0-1.0-322.0,0,0,23720,,594.0,,,75.0,80.0,80.0,2.0,1000.0,M-XL,0.0,M,XL,2.0,4.0,ketchup,van,ketchup1,van2,90.0,191.0,/static/Size_judgement/Stimuli/Size_stims/M/ketchup/ketchup8.jpg,/static/Size_judgement/Stimuli/Size_stims/XL/van/van4.jpg,0.0,van,ketchup,XL,M,4.0,2.0,van2,ketchup1,1.0,255.594,0.594,0.0,
244,,size_choice_confirmation,,html-keyboard-response,244,357925,0.0-1.0-323.0-0.0,0,0,23720,,,,,,80.0,,,,,,,,,,,,,,,,,,,,,,,,,,,,256.5,0.906,,
245,,iti,,html-keyboard-response,245,358926,0.0-1.0-324.0,0,0,23720,,,,,,,,,,,,,,,,,,,,,,,,,,,,,,,,,,257.5,1.0,,
246,,size_choice,,html-keyboard-response,246,359567,0.0-1.0-326.0,0,0,23720,,640.0,,,75.0,81.0,81.0,2.0,3000.0,M-XL,0.0,M,XL,2.0,4.0,coffeemaker,tractor,coffeemaker6,tractor3,65.0,182.0,/static/Size_judgement/Stimuli/Size_stims/M/coffeemaker/coffeemaker8.jpg,/static/Size_judgement/Stimuli/Size_stims/XL/tractor/tractor5.jpg,0.0,tractor,coffeemaker,XL,M,4.0,2.0,tractor3,coffeemaker6,1.0,258.14,0.64,0.0,
247,,size_choice_confirmation,,html-keyboard-response,247,360428,0.0-1.0-327.0-0.0,0,0,23720,,,,,,81.0,,,,,,,,,,,,,,,,,,,,,,,,,,,,259.0,0.86,,
248,,iti,,html-keyboard-response,248,363430,0.0-1.0-328.0,0,0,23720,,,,,,,,,,,,,,,,,,,,,,,,,,,,,,,,,,262.0,3.0,,
249,,size_choice,,html-keyboard-response,249,364187,0.0-1.0-330.0,0,0,23720,,755.0,,,68.0,82.0,82.0,2.0,1000.0,M-L,1.0,L,M,3.0,2.0,dishwasher,basketball,dishwasher6,basketball10,25.0,59.0,/static/Size_judgement/Stimuli/Size_stims/L/dishwasher/dishwasher6.jpg,/static/Size_judgement/Stimuli/Size_stims/M/basketball/basketball4.jpg,1.0,dishwasher,basketball,L,M,3.0,2.0,dishwasher6,basketball10,1.0,262.755,0.755,0.0,
250,,size_choice_confirmation,,html-keyboard-response,250,364934,0.0-1.0-331.0-0.0,0,0,23720,,,,,,82.0,,,,,,,,,,,,,,,,,,,,,,,,,,,,263.5,0.745,,
251,,iti,,html-keyboard-response,251,365935,0.0-1.0-332.0,0,0,23720,,,,,,,,,,,,,,,,,,,,,,,,,,,,,,,,,,264.5,1.0,,
252,,size_choice,,html-keyboard-response,252,366692,0.0-1.0-334.0,0,0,23720,,757.0,,,68.0,83.0,83.0,2.0,1000.0,M-XL,1.0,XL,M,4.0,2.0,van,hairdryer,van8,hairdryer9,197.0,78.0,/static/Size_judgement/Stimuli/Size_stims/XL/van/van10.jpg,/static/Size_judgement/Stimuli/Size_stims/M/hairdryer/hairdryer5.jpg,1.0,van,hairdryer,XL,M,4.0,2.0,van8,hairdryer9,1.0,265.257,0.757,0.0,
253,,size_choice_confirmation,,html-keyboard-response,253,367437,0.0-1.0-335.0-0.0,0,0,23720,,,,,,83.0,,,,,,,,,,,,,,,,,,,,,,,,,,,,266.0,0.743,,
254,,iti,,html-keyboard-response,254,368439,0.0-1.0-336.0,0,0,23720,,,,,,,,,,,,,,,,,,,,,,,,,,,,,,,,,,267.0,1.0,,
255,,size_choice,,html-keyboard-response,255,369242,0.0-1.0-338.0,0,0,23720,,803.0,,,68.0,84.0,84.0,2.0,1000.0,XL-XL,,XL,XL,4.0,4.0,tractor,dumptruck,tractor5,dumptruck3,184.0,172.0,/static/Size_judgement/Stimuli/Size_stims/XL/tractor/tractor1.jpg,/static/Size_judgement/Stimuli/Size_stims/XL/dumptruck/dumptruck10.jpg,1.0,tractor,dumptruck,XL,XL,4.0,4.0,tractor5,dumptruck3,,267.803,0.803,0.0,
256,,size_choice_confirmation,,html-keyboard-response,256,369941,0.0-1.0-339.0-0.0,0,0,23720,,,,,,84.0,,,,,,,,,,,,,,,,,,,,,,,,,,,,268.5,0.697,,
257,,iti,,html-keyboard-response,257,370942,0.0-1.0-340.0,0,0,23720,,,,,,,,,,,,,,,,,,,,,,,,,,,,,,,,,,269.5,1.0,,
258,,size_choice,,html-keyboard-response,258,371796,0.0-1.0-342.0,0,0,23720,,853.0,,,68.0,85.0,85.0,2.0,1000.0,M-L,1.0,L,M,3.0,2.0,mailbox,basketball,mailbox7,basketball1,46.0,50.0,/static/Size_judgement/Stimuli/Size_stims/L/mailbox/mailbox7.jpg,/static/Size_judgement/Stimuli/Size_stims/M/basketball/basketball9.jpg,1.0,mailbox,basketball,L,M,3.0,2.0,mailbox7,basketball1,1.0,270.353,0.853,0.0,
259,,size_choice_confirmation,,html-keyboard-response,259,372445,0.0-1.0-343.0-0.0,0,0,23720,,,,,,85.0,,,,,,,,,,,,,,,,,,,,,,,,,,,,271.0,0.647,,
260,,iti,,html-keyboard-response,260,373447,0.0-1.0-344.0,0,0,23720,,,,,,,,,,,,,,,,,,,,,,,,,,,,,,,,,,272.0,1.0,,
261,,size_choice,,html-keyboard-response,261,374298,0.0-1.0-346.0,0,0,23720,,850.0,,,68.0,86.0,86.0,2.0,1500.0,S-XL,1.0,XL,S,4.0,1.0,dumptruck,screws,dumptruck6,screws8,175.0,127.0,/static/Size_judgement/Stimuli/Size_stims/XL/dumptruck/dumptruck2.jpg,/static/Size_judgement/Stimuli/Size_stims/S/screws/screws10.jpg,1.0,dumptruck,screws,XL,S,4.0,1.0,dumptruck6,screws8,1.0,272.85,0.85,0.0,
262,,size_choice_confirmation,,html-keyboard-response,262,374949,0.0-1.0-347.0-0.0,0,0,23720,,,,,,86.0,,,,,,,,,,,,,,,,,,,,,,,,,,,,273.5,0.65,,
263,,iti,,html-keyboard-response,263,376451,0.0-1.0-348.0,0,0,23720,,,,,,,,,,,,,,,,,,,,,,,,,,,,,,,,,,275.0,1.5,,
264,,size_choice,,html-keyboard-response,264,377278,0.0-1.0-350.0,0,0,23720,,827.0,,,68.0,87.0,87.0,2.0,1500.0,L-XL,1.0,XL,L,4.0,3.0,car,deskchair,car7,deskchair8,156.0,17.0,/static/Size_judgement/Stimuli/Size_stims/XL/car/car13.jpg,/static/Size_judgement/Stimuli/Size_stims/L/deskchair/deskchair1.jpg,1.0,car,deskchair,XL,L,4.0,3.0,car7,deskchair8,1.0,275.827,0.827,0.0,
265,,size_choice_confirmation,,html-keyboard-response,265,377953,0.0-1.0-351.0-0.0,0,0,23720,,,,,,87.0,,,,,,,,,,,,,,,,,,,,,,,,,,,,276.5,0.673,,
266,,iti,,html-keyboard-response,266,379455,0.0-1.0-352.0,0,0,23720,,,,,,,,,,,,,,,,,,,,,,,,,,,,,,,,,,278.0,1.5,,
267,,size_choice,,html-keyboard-response,267,380342,0.0-1.0-354.0,0,0,23720,,885.0,,,68.0,88.0,88.0,2.0,1000.0,M-L,1.0,L,M,3.0,2.0,garbagecan,hairdryer,garbagecan10,hairdryer7,39.0,76.0,/static/Size_judgement/Stimuli/Size_stims/L/garbagecan/garbagecan11.jpg,/static/Size_judgement/Stimuli/Size_stims/M/hairdryer/hairdryer3.jpg,1.0,garbagecan,hairdryer,L,M,3.0,2.0,garbagecan10,hairdryer7,1.0,278.885,0.885,0.0,
268,,size_choice_confirmation,,html-keyboard-response,268,380958,0.0-1.0-355.0-0.0,0,0,23720,,,,,,88.0,,,,,,,,,,,,,,,,,,,,,,,,,,,,279.5,0.615,,
269,,iti,,html-keyboard-response,269,381959,0.0-1.0-356.0,0,0,23720,,,,,,,,,,,,,,,,,,,,,,,,,,,,,,,,,,280.5,1.0,,
270,,size_choice,,html-keyboard-response,270,382688,0.0-1.0-358.0,0,0,23720,,728.0,,,75.0,89.0,89.0,2.0,2000.0,M-XL,0.0,M,XL,2.0,4.0,handsaw,car,handsaw5,car10,84.0,159.0,/static/Size_judgement/Stimuli/Size_stims/M/handsaw/handsaw1.jpg,/static/Size_judgement/Stimuli/Size_stims/XL/car/car9.jpg,0.0,car,handsaw,XL,M,4.0,2.0,car10,handsaw5,1.0,281.228,0.728,0.0,
271,,size_choice_confirmation,,html-keyboard-response,271,383462,0.0-1.0-359.0-0.0,0,0,23720,,,,,,89.0,,,,,,,,,,,,,,,,,,,,,,,,,,,,282.0,0.772,,
272,,iti,,html-keyboard-response,272,385472,0.0-1.0-360.0,0,0,23720,,,,,,,,,,,,,,,,,,,,,,,,,,,,,,,,,,284.0,2.0,,0.97
273,,size_final_tally,,html-keyboard-response,273,389419,0.0-2.0,0,0,23720,,3947.0,,,68.0,,,,,,,,,,,,,,,,,,,,,,,,,,,,,,,,
