,success,ttype,start_time,trial_type,trial_index,time_elapsed,internal_node_id,warning,missed_checkup,PID,view_history,rt,responses,repeat_instructions,key_press,index,trial_num,block,iti,pair_type,high_size_on_left,left_size_group,right_size_group,left_size_num,right_size_num,left_category,right_category,left_exemplar,right_exemplar,left_index,right_index,left_img_path,right_img_path,left_chosen,chosen_category,unchosen_category,chosen_size_group,unchosen_size_group,chosen_size_num,unchosen_size_num,chosen_exemplar,unchosen_exemplar,accuracy,onset,duration,no_response,size_final_tally
0,True,full_screen,d06032022hr1702,fullscreen,0,3775,0.0-0.0,0,0,64747,,,,,,,,,,,,,,,,,,,,,,,,,,,,,,,,,,,,,
1,,size_instructions,,instructions,1,30317,0.0-1.0-0.0-0.0,0,0,64747,"[{""page_index"":0,""viewing_time"":4797},{""page_index"":1,""viewing_time"":5033},{""page_index"":2,""viewing_time"":4543},{""page_index"":3,""viewing_time"":1976},{""page_index"":4,""viewing_time"":7064},{""page_index"":5,""viewing_time"":3122}]",26539.0,,,,,,,,,,,,,,,,,,,,,,,,,,,,,,,,,,,
2,,size_comprehension_check,,survey-multi-choice,2,42251,0.0-1.0-0.0-1.0,0,0,64747,,11919.0,"{""Q0"":""True"",""Q1"":""Size in the real world"",""Q2"":""True"",""Q3"":""D for left and K for right""}",0.0,,,,,,,,,,,,,,,,,,,,,,,,,,,,,,,,,
3,,,,html-keyboard-response,3,43919,0.0-1.0-1.0,0,0,64747,,1659.0,,,68.0,,,,,,,,,,,,,,,,,,,,,,,,,,,,,,,,
4,,size_choice,,html-keyboard-response,4,45195,0.0-1.0-2.0,0,0,64747,,1270.0,,,75.0,0.0,0.0,1.0,1500.0,S-M,0.0,S,M,1.0,2.0,die,basketball,die2,basketball9,101.0,58.0,/static/Size_judgement/Stimuli/Size_stims/S/die/die9.jpg,/static/Size_judgement/Stimuli/Size_stims/M/basketball/basketball5.jpg,0.0,basketball,die,M,S,2.0,1.0,basketball9,die2,1.0,1.27,1.27,0.0,
5,,size_choice_confirmation,,html-keyboard-response,5,45433,0.0-1.0-3.0-0.0,0,0,64747,,,,,,0.0,,,,,,,,,,,,,,,,,,,,,,,,,,,,1.5,0.23,,
6,,iti,,html-keyboard-response,6,46939,0.0-1.0-4.0,0,0,64747,,,,,,,,,,,,,,,,,,,,,,,,,,,,,,,,,,3.0,1.5,,
7,,size_choice,,html-keyboard-response,7,47826,0.0-1.0-6.0,0,0,64747,,882.0,,,68.0,1.0,1.0,1.0,1500.0,S-L,1.0,L,S,3.0,1.0,cooler,die,cooler7,die7,6.0,106.0,/static/Size_judgement/Stimuli/Size_stims/L/cooler/cooler4.jpg,/static/Size_judgement/Stimuli/Size_stims/S/die/die4.jpg,1.0,cooler,die,L,S,3.0,1.0,cooler7,die7,1.0,3.882,0.882,0.0,
8,,size_choice_confirmation,,html-keyboard-response,8,48455,0.0-1.0-7.0-0.0,0,0,64747,,,,,,1.0,,,,,,,,,,,,,,,,,,,,,,,,,,,,4.5,0.618,,
9,,iti,,html-keyboard-response,9,49959,0.0-1.0-8.0,0,0,64747,,,,,,,,,,,,,,,,,,,,,,,,,,,,,,,,,,6.0,1.5,,
10,,size_choice,,html-keyboard-response,10,50794,0.0-1.0-10.0,0,0,64747,,832.0,,,68.0,2.0,2.0,1.0,3000.0,M-XL,1.0,XL,M,4.0,2.0,car,hairdryer,car3,hairdryer4,152.0,73.0,/static/Size_judgement/Stimuli/Size_stims/XL/car/car4.jpg,/static/Size_judgement/Stimuli/Size_stims/M/hairdryer/hairdryer16.jpg,1.0,car,hairdryer,XL,M,4.0,2.0,car3,hairdryer4,1.0,6.832,0.832,0.0,
11,,size_choice_confirmation,,html-keyboard-response,11,51473,0.0-1.0-11.0-0.0,0,0,64747,,,,,,2.0,,,,,,,,,,,,,,,,,,,,,,,,,,,,7.5,0.668,,
12,,iti,,html-keyboard-response,12,54483,0.0-1.0-12.0,0,0,64747,,,,,,,,,,,,,,,,,,,,,,,,,,,,,,,,,,10.5,3.0,,
13,,size_choice,,html-keyboard-response,13,55329,0.0-1.0-14.0,0,0,64747,,843.0,,,68.0,3.0,3.0,1.0,1000.0,M-L,1.0,L,M,3.0,2.0,garbagecan,ketchup,garbagecan10,ketchup8,39.0,97.0,/static/Size_judgement/Stimuli/Size_stims/L/garbagecan/garbagecan11.jpg,/static/Size_judgement/Stimuli/Size_stims/M/ketchup/ketchup5.jpg,1.0,garbagecan,ketchup,L,M,3.0,2.0,garbagecan10,ketchup8,1.0,11.343,0.843,0.0,
14,,size_choice_confirmation,,html-keyboard-response,14,55997,0.0-1.0-15.0-0.0,0,0,64747,,,,,,3.0,,,,,,,,,,,,,,,,,,,,,,,,,,,,12.0,0.657,,
15,,iti,,html-keyboard-response,15,57003,0.0-1.0-16.0,0,0,64747,,,,,,,,,,,,,,,,,,,,,,,,,,,,,,,,,,13.0,1.0,,
16,,size_choice,,html-keyboard-response,16,57782,0.0-1.0-18.0,0,0,64747,,774.0,,,75.0,4.0,4.0,1.0,2000.0,S-S,,S,S,1.0,1.0,thread,teabag,thread6,teabag4,145.0,133.0,/static/Size_judgement/Stimuli/Size_stims/S/thread/thread2.jpg,/static/Size_judgement/Stimuli/Size_stims/S/teabag/teabag3.jpg,0.0,teabag,thread,S,S,1.0,1.0,teabag4,thread6,,13.774,0.774,0.0,
17,,size_choice_confirmation,,html-keyboard-response,17,58515,0.0-1.0-19.0-0.0,0,0,64747,,,,,,4.0,,,,,,,,,,,,,,,,,,,,,,,,,,,,14.5,0.726,,
18,,iti,,html-keyboard-response,18,60523,0.0-1.0-20.0,0,0,64747,,,,,,,,,,,,,,,,,,,,,,,,,,,,,,,,,,16.5,2.0,,
19,,size_choice,,html-keyboard-response,19,61540,0.0-1.0-22.0,0,0,64747,,1014.0,,,68.0,5.0,5.0,1.0,3000.0,M-XL,1.0,XL,M,4.0,2.0,tractor,ketchup,tractor8,ketchup1,187.0,90.0,/static/Size_judgement/Stimuli/Size_stims/XL/tractor/tractor10.jpg,/static/Size_judgement/Stimuli/Size_stims/M/ketchup/ketchup8.jpg,1.0,tractor,ketchup,XL,M,4.0,2.0,tractor8,ketchup1,1.0,17.514,1.014,0.0,
20,,size_choice_confirmation,,html-keyboard-response,20,62033,0.0-1.0-23.0-0.0,0,0,64747,,,,,,5.0,,,,,,,,,,,,,,,,,,,,,,,,,,,,18.0,0.486,,
21,,iti,,html-keyboard-response,21,65042,0.0-1.0-24.0,0,0,64747,,,,,,,,,,,,,,,,,,,,,,,,,,,,,,,,,,21.0,3.0,,
22,,size_choice,,html-keyboard-response,22,65724,0.0-1.0-26.0,0,0,64747,,677.0,,,68.0,6.0,6.0,1.0,1000.0,S-S,,S,S,1.0,1.0,paperclip,teabag,paperclip3,teabag2,112.0,131.0,/static/Size_judgement/Stimuli/Size_stims/S/paperclip/paperclip1.jpg,/static/Size_judgement/Stimuli/Size_stims/S/teabag/teabag8.jpg,1.0,paperclip,teabag,S,S,1.0,1.0,paperclip3,teabag2,,21.677,0.677,0.0,
23,,size_choice_confirmation,,html-keyboard-response,23,66553,0.0-1.0-27.0-0.0,0,0,64747,,,,,,6.0,,,,,,,,,,,,,,,,,,,,,,,,,,,,22.5,0.823,,
24,,iti,,html-keyboard-response,24,67562,0.0-1.0-28.0,0,0,64747,,,,,,,,,,,,,,,,,,,,,,,,,,,,,,,,,,23.5,1.0,,
25,,size_choice,,html-keyboard-response,25,68164,0.0-1.0-30.0,0,0,64747,,598.0,,,75.0,7.0,7.0,1.0,1000.0,S-M,0.0,S,M,1.0,2.0,paperclip,hairdryer,paperclip1,hairdryer6,110.0,75.0,/static/Size_judgement/Stimuli/Size_stims/S/paperclip/paperclip9.jpg,/static/Size_judgement/Stimuli/Size_stims/M/hairdryer/hairdryer8.jpg,0.0,hairdryer,paperclip,M,S,2.0,1.0,hairdryer6,paperclip1,1.0,24.098,0.598,0.0,
26,,size_choice_confirmation,,html-keyboard-response,26,69084,0.0-1.0-31.0-0.0,0,0,64747,,,,,,7.0,,,,,,,,,,,,,,,,,,,,,,,,,,,,25.0,0.902,,
27,,iti,,html-keyboard-response,27,70106,0.0-1.0-32.0,0,0,64747,,,,,,,,,,,,,,,,,,,,,,,,,,,,,,,,,,26.0,1.0,,
28,,size_choice,,html-keyboard-response,28,71498,0.0-1.0-34.0,0,0,64747,,1388.0,,,68.0,8.0,8.0,1.0,1500.0,S-L,1.0,L,S,3.0,1.0,garbagecan,die,garbagecan6,die4,35.0,103.0,/static/Size_judgement/Stimuli/Size_stims/L/garbagecan/garbagecan14.jpg,/static/Size_judgement/Stimuli/Size_stims/S/die/die2.jpg,1.0,garbagecan,die,L,S,3.0,1.0,garbagecan6,die4,1.0,27.388,1.388,0.0,
29,,size_choice_confirmation,,html-keyboard-response,29,71618,0.0-1.0-35.0-0.0,0,0,64747,,,,,,8.0,,,,,,,,,,,,,,,,,,,,,,,,,,,,27.5,0.112,,
30,,iti,,html-keyboard-response,30,73123,0.0-1.0-36.0,0,0,64747,,,,,,,,,,,,,,,,,,,,,,,,,,,,,,,,,,29.0,1.5,,
31,,size_choice,,html-keyboard-response,31,73934,0.0-1.0-38.0,0,0,64747,,807.0,,,68.0,9.0,9.0,1.0,1000.0,L-L,,L,L,3.0,3.0,garbagecan,deskchair,garbagecan8,deskchair6,37.0,15.0,/static/Size_judgement/Stimuli/Size_stims/L/garbagecan/garbagecan13.jpg,/static/Size_judgement/Stimuli/Size_stims/L/deskchair/deskchair5.jpg,1.0,garbagecan,deskchair,L,L,3.0,3.0,garbagecan8,deskchair6,,29.806999999999995,0.807,0.0,
32,,size_choice_confirmation,,html-keyboard-response,32,74637,0.0-1.0-39.0-0.0,0,0,64747,,,,,,9.0,,,,,,,,,,,,,,,,,,,,,,,,,,,,30.5,0.693,,
33,,iti,,html-keyboard-response,33,75642,0.0-1.0-40.0,0,0,64747,,,,,,,,,,,,,,,,,,,,,,,,,,,,,,,,,,31.5,1.0,,
34,,size_choice,,html-keyboard-response,34,76371,0.0-1.0-42.0,0,0,64747,,724.0,,,68.0,10.0,10.0,1.0,1000.0,S-XL,1.0,XL,S,4.0,1.0,crane,screws,crane7,screws3,166.0,122.0,/static/Size_judgement/Stimuli/Size_stims/XL/crane/crane3.jpg,/static/Size_judgement/Stimuli/Size_stims/S/screws/screws7.jpg,1.0,crane,screws,XL,S,4.0,1.0,crane7,screws3,1.0,32.224,0.724,0.0,
35,,size_choice_confirmation,,html-keyboard-response,35,77162,0.0-1.0-43.0-0.0,0,0,64747,,,,,,10.0,,,,,,,,,,,,,,,,,,,,,,,,,,,,33.0,0.776,,
36,,iti,,html-keyboard-response,36,78166,0.0-1.0-44.0,0,0,64747,,,,,,,,,,,,,,,,,,,,,,,,,,,,,,,,,,34.0,1.0,,
37,,size_choice,,html-keyboard-response,37,78862,0.0-1.0-46.0,0,0,64747,,692.0,,,68.0,11.0,11.0,1.0,2000.0,M-L,1.0,L,M,3.0,2.0,deskchair,coffeemaker,deskchair1,coffeemaker3,10.0,62.0,/static/Size_judgement/Stimuli/Size_stims/L/deskchair/deskchair9.jpg,/static/Size_judgement/Stimuli/Size_stims/M/coffeemaker/coffeemaker13.jpg,1.0,deskchair,coffeemaker,L,M,3.0,2.0,deskchair1,coffeemaker3,1.0,34.692,0.692,0.0,
38,,size_choice_confirmation,,html-keyboard-response,38,79678,0.0-1.0-47.0-0.0,0,0,64747,,,,,,11.0,,,,,,,,,,,,,,,,,,,,,,,,,,,,35.5,0.808,,
39,,iti,,html-keyboard-response,39,81684,0.0-1.0-48.0,0,0,64747,,,,,,,,,,,,,,,,,,,,,,,,,,,,,,,,,,37.5,2.0,,
40,,size_choice,,html-keyboard-response,40,82467,0.0-1.0-50.0,0,0,64747,,778.0,,,68.0,12.0,12.0,1.0,3500.0,L-L,,L,L,3.0,3.0,deskchair,garbagecan,deskchair2,garbagecan5,11.0,34.0,/static/Size_judgement/Stimuli/Size_stims/L/deskchair/deskchair8.jpg,/static/Size_judgement/Stimuli/Size_stims/L/garbagecan/garbagecan3.jpg,1.0,deskchair,garbagecan,L,L,3.0,3.0,deskchair2,garbagecan5,,38.278,0.778,0.0,
41,,size_choice_confirmation,,html-keyboard-response,41,83199,0.0-1.0-51.0-0.0,0,0,64747,,,,,,12.0,,,,,,,,,,,,,,,,,,,,,,,,,,,,39.0,0.722,,
42,,iti,,html-keyboard-response,42,86704,0.0-1.0-52.0,0,0,64747,,,,,,,,,,,,,,,,,,,,,,,,,,,,,,,,,,42.5,3.5,,
43,,size_choice,,html-keyboard-response,43,87949,0.0-1.0-54.0,0,0,64747,,1240.0,,,68.0,13.0,13.0,1.0,3500.0,M-L,1.0,L,M,3.0,2.0,dishwasher,coffeemaker,dishwasher6,coffeemaker7,25.0,66.0,/static/Size_judgement/Stimuli/Size_stims/L/dishwasher/dishwasher6.jpg,/static/Size_judgement/Stimuli/Size_stims/M/coffeemaker/coffeemaker9.jpg,1.0,dishwasher,coffeemaker,L,M,3.0,2.0,dishwasher6,coffeemaker7,1.0,43.74,1.24,0.0,
44,,size_choice_confirmation,,html-keyboard-response,44,88218,0.0-1.0-55.0-0.0,0,0,64747,,,,,,13.0,,,,,,,,,,,,,,,,,,,,,,,,,,,,44.0,0.26,,
45,,iti,,html-keyboard-response,45,91732,0.0-1.0-56.0,0,0,64747,,,,,,,,,,,,,,,,,,,,,,,,,,,,,,,,,,47.5,3.5,,
46,,size_choice,,html-keyboard-response,46,92565,0.0-1.0-58.0,0,0,64747,,829.0,,,75.0,14.0,14.0,1.0,1000.0,S-L,0.0,S,L,1.0,3.0,screws,deskchair,screws5,deskchair3,124.0,12.0,/static/Size_judgement/Stimuli/Size_stims/S/screws/screws2.jpg,/static/Size_judgement/Stimuli/Size_stims/L/deskchair/deskchair10.jpg,0.0,deskchair,screws,L,S,3.0,1.0,deskchair3,screws5,1.0,48.329,0.829,0.0,
47,,size_choice_confirmation,,html-keyboard-response,47,93242,0.0-1.0-59.0-0.0,0,0,64747,,,,,,14.0,,,,,,,,,,,,,,,,,,,,,,,,,,,,49.0,0.671,,
48,,iti,,html-keyboard-response,48,94251,0.0-1.0-60.0,0,0,64747,,,,,,,,,,,,,,,,,,,,,,,,,,,,,,,,,,50.0,1.0,,
49,,size_choice,,html-keyboard-response,49,95605,0.0-1.0-62.0,0,0,64747,,1351.0,,,75.0,15.0,15.0,1.0,2000.0,L-XL,1.0,XL,L,4.0,3.0,van,dishwasher,van9,dishwasher10,198.0,29.0,/static/Size_judgement/Stimuli/Size_stims/XL/van/van9.jpg,/static/Size_judgement/Stimuli/Size_stims/L/dishwasher/dishwasher1.jpg,0.0,dishwasher,van,L,XL,3.0,4.0,dishwasher10,van9,0.0,51.351,1.351,0.0,
50,,size_choice_confirmation,,html-keyboard-response,50,95759,0.0-1.0-63.0-0.0,0,0,64747,,,,,,15.0,,,,,,,,,,,,,,,,,,,,,,,,,,,,51.5,0.149,,
51,,iti,,html-keyboard-response,51,97766,0.0-1.0-64.0,0,0,64747,,,,,,,,,,,,,,,,,,,,,,,,,,,,,,,,,,53.5,2.0,,
52,,size_choice,,html-keyboard-response,52,99076,0.0-1.0-66.0,0,0,64747,,1307.0,,,68.0,16.0,16.0,1.0,1500.0,S-S,,S,S,1.0,1.0,die,screws,die3,screws8,102.0,127.0,/static/Size_judgement/Stimuli/Size_stims/S/die/die10.jpg,/static/Size_judgement/Stimuli/Size_stims/S/screws/screws10.jpg,1.0,die,screws,S,S,1.0,1.0,die3,screws8,,54.807,1.307,0.0,
53,,size_choice_confirmation,,html-keyboard-response,53,99276,0.0-1.0-67.0-0.0,0,0,64747,,,,,,16.0,,,,,,,,,,,,,,,,,,,,,,,,,,,,55.0,0.193,,
54,,iti,,html-keyboard-response,54,100785,0.0-1.0-68.0,0,0,64747,,,,,,,,,,,,,,,,,,,,,,,,,,,,,,,,,,56.5,1.5,,
55,,size_choice,,html-keyboard-response,55,102223,0.0-1.0-70.0,0,0,64747,,1435.0,,,75.0,17.0,17.0,1.0,1500.0,M-M,,M,M,2.0,2.0,ketchup,handsaw,ketchup2,handsaw8,91.0,87.0,/static/Size_judgement/Stimuli/Size_stims/M/ketchup/ketchup9.jpg,/static/Size_judgement/Stimuli/Size_stims/M/handsaw/handsaw7.jpg,0.0,handsaw,ketchup,M,M,2.0,2.0,handsaw8,ketchup2,,57.935,1.435,0.0,
56,,size_choice_confirmation,,html-keyboard-response,56,102294,0.0-1.0-71.0-0.0,0,0,64747,,,,,,17.0,,,,,,,,,,,,,,,,,,,,,,,,,,,,58.0,0.065,,
57,,iti,,html-keyboard-response,57,103797,0.0-1.0-72.0,0,0,64747,,,,,,,,,,,,,,,,,,,,,,,,,,,,,,,,,,59.5,1.5,,
58,,size_choice,,html-keyboard-response,58,104871,0.0-1.0-74.0,0,0,64747,,1070.0,,,68.0,18.0,18.0,1.0,1000.0,M-L,1.0,L,M,3.0,2.0,cooler,basketball,cooler4,basketball6,3.0,55.0,/static/Size_judgement/Stimuli/Size_stims/L/cooler/cooler3.jpg,/static/Size_judgement/Stimuli/Size_stims/M/basketball/basketball2.jpg,1.0,cooler,basketball,L,M,3.0,2.0,cooler4,basketball6,1.0,60.57,1.07,0.0,
59,,size_choice_confirmation,,html-keyboard-response,59,105313,0.0-1.0-75.0-0.0,0,0,64747,,,,,,18.0,,,,,,,,,,,,,,,,,,,,,,,,,,,,61.0,0.43,,
60,,iti,,html-keyboard-response,60,106322,0.0-1.0-76.0,0,0,64747,,,,,,,,,,,,,,,,,,,,,,,,,,,,,,,,,,62.0,1.0,,
61,,size_choice,,html-keyboard-response,61,106957,0.0-1.0-78.0,0,0,64747,,630.0,,,68.0,19.0,19.0,1.0,1500.0,S-XL,1.0,XL,S,4.0,1.0,tractor,teabag,tractor6,teabag10,185.0,139.0,/static/Size_judgement/Stimuli/Size_stims/XL/tractor/tractor3.jpg,/static/Size_judgement/Stimuli/Size_stims/S/teabag/teabag4.jpg,1.0,tractor,teabag,XL,S,4.0,1.0,tractor6,teabag10,1.0,62.63,0.63,0.0,
62,,size_choice_confirmation,,html-keyboard-response,62,107837,0.0-1.0-79.0-0.0,0,0,64747,,,,,,19.0,,,,,,,,,,,,,,,,,,,,,,,,,,,,63.5,0.87,,
63,,iti,,html-keyboard-response,63,109347,0.0-1.0-80.0,0,0,64747,,,,,,,,,,,,,,,,,,,,,,,,,,,,,,,,,,65.0,1.5,,
64,,size_choice,,html-keyboard-response,64,110037,0.0-1.0-82.0,0,0,64747,,684.0,,,75.0,20.0,20.0,1.0,2000.0,M-XL,0.0,M,XL,2.0,4.0,handsaw,tractor,handsaw1,tractor2,80.0,181.0,/static/Size_judgement/Stimuli/Size_stims/M/handsaw/handsaw8.jpg,/static/Size_judgement/Stimuli/Size_stims/XL/tractor/tractor7.jpg,0.0,tractor,handsaw,XL,M,4.0,2.0,tractor2,handsaw1,1.0,65.684,0.684,0.0,
65,,size_choice_confirmation,,html-keyboard-response,65,110864,0.0-1.0-83.0-0.0,0,0,64747,,,,,,20.0,,,,,,,,,,,,,,,,,,,,,,,,,,,,66.5,0.816,,
66,,iti,,html-keyboard-response,66,112873,0.0-1.0-84.0,0,0,64747,,,,,,,,,,,,,,,,,,,,,,,,,,,,,,,,,,68.5,2.0,,
67,,size_choice,,html-keyboard-response,67,113638,0.0-1.0-86.0,0,0,64747,,761.0,,,75.0,21.0,21.0,1.0,1000.0,L-L,,L,L,3.0,3.0,mailbox,garbagecan,mailbox2,garbagecan7,41.0,36.0,/static/Size_judgement/Stimuli/Size_stims/L/mailbox/mailbox2.jpg,/static/Size_judgement/Stimuli/Size_stims/L/garbagecan/garbagecan16.jpg,0.0,garbagecan,mailbox,L,L,3.0,3.0,garbagecan7,mailbox2,,69.261,0.761,0.0,
68,,size_choice_confirmation,,html-keyboard-response,68,114390,0.0-1.0-87.0-0.0,0,0,64747,,,,,,21.0,,,,,,,,,,,,,,,,,,,,,,,,,,,,70.0,0.739,,
69,,iti,,html-keyboard-response,69,115401,0.0-1.0-88.0,0,0,64747,,,,,,,,,,,,,,,,,,,,,,,,,,,,,,,,,,71.0,1.0,,
70,,size_choice,,html-keyboard-response,70,116719,0.0-1.0-90.0,0,0,64747,,1315.0,,,75.0,22.0,22.0,1.0,2000.0,M-M,,M,M,2.0,2.0,ketchup,hairdryer,ketchup5,hairdryer5,94.0,74.0,/static/Size_judgement/Stimuli/Size_stims/M/ketchup/ketchup3.jpg,/static/Size_judgement/Stimuli/Size_stims/M/hairdryer/hairdryer15.jpg,0.0,hairdryer,ketchup,M,M,2.0,2.0,hairdryer5,ketchup5,,72.315,1.315,0.0,
71,,size_choice_confirmation,,html-keyboard-response,71,116915,0.0-1.0-91.0-0.0,0,0,64747,,,,,,22.0,,,,,,,,,,,,,,,,,,,,,,,,,,,,72.5,0.185,,
72,,iti,,html-keyboard-response,72,118922,0.0-1.0-92.0,0,0,64747,,,,,,,,,,,,,,,,,,,,,,,,,,,,,,,,,,74.5,2.0,,
73,,size_choice,,html-keyboard-response,73,119540,0.0-1.0-94.0,0,0,64747,,613.0,,,68.0,23.0,23.0,1.0,1000.0,M-XL,1.0,XL,M,4.0,2.0,crane,basketball,crane6,basketball5,165.0,54.0,/static/Size_judgement/Stimuli/Size_stims/XL/crane/crane2.jpg,/static/Size_judgement/Stimuli/Size_stims/M/basketball/basketball3.jpg,1.0,crane,basketball,XL,M,4.0,2.0,crane6,basketball5,1.0,75.113,0.613,0.0,
74,,size_choice_confirmation,,html-keyboard-response,74,120436,0.0-1.0-95.0-0.0,0,0,64747,,,,,,23.0,,,,,,,,,,,,,,,,,,,,,,,,,,,,76.0,0.887,,
75,,iti,,html-keyboard-response,75,121443,0.0-1.0-96.0,0,0,64747,,,,,,,,,,,,,,,,,,,,,,,,,,,,,,,,,,77.0,1.0,,
76,,size_choice,,html-keyboard-response,76,122335,0.0-1.0-98.0,0,0,64747,,889.0,,,75.0,24.0,24.0,1.0,2000.0,M-XL,0.0,M,XL,2.0,4.0,coffeemaker,tractor,coffeemaker5,tractor9,64.0,188.0,/static/Size_judgement/Stimuli/Size_stims/M/coffeemaker/coffeemaker10.jpg,/static/Size_judgement/Stimuli/Size_stims/XL/tractor/tractor9.jpg,0.0,tractor,coffeemaker,XL,M,4.0,2.0,tractor9,coffeemaker5,1.0,77.889,0.889,0.0,
77,,size_choice_confirmation,,html-keyboard-response,77,122966,0.0-1.0-99.0-0.0,0,0,64747,,,,,,24.0,,,,,,,,,,,,,,,,,,,,,,,,,,,,78.5,0.611,,
78,,iti,,html-keyboard-response,78,124974,0.0-1.0-100.0,0,0,64747,,,,,,,,,,,,,,,,,,,,,,,,,,,,,,,,,,80.5,2.0,,
79,,size_choice,,html-keyboard-response,79,125602,0.0-1.0-102.0,0,0,64747,,623.0,,,68.0,25.0,25.0,1.0,1000.0,L-XL,1.0,XL,L,4.0,3.0,dumptruck,dishwasher,dumptruck10,dishwasher7,179.0,26.0,/static/Size_judgement/Stimuli/Size_stims/XL/dumptruck/dumptruck4.jpg,/static/Size_judgement/Stimuli/Size_stims/L/dishwasher/dishwasher7.jpg,1.0,dumptruck,dishwasher,XL,L,4.0,3.0,dumptruck10,dishwasher7,1.0,81.123,0.623,0.0,
80,,size_choice_confirmation,,html-keyboard-response,80,126498,0.0-1.0-103.0-0.0,0,0,64747,,,,,,25.0,,,,,,,,,,,,,,,,,,,,,,,,,,,,82.0,0.877,,
81,,iti,,html-keyboard-response,81,127504,0.0-1.0-104.0,0,0,64747,,,,,,,,,,,,,,,,,,,,,,,,,,,,,,,,,,83.0,1.0,,
82,,size_choice,,html-keyboard-response,82,128106,0.0-1.0-106.0,0,0,64747,,598.0,,,68.0,26.0,26.0,1.0,1000.0,S-XL,1.0,XL,S,4.0,1.0,dumptruck,die,dumptruck4,die1,173.0,100.0,/static/Size_judgement/Stimuli/Size_stims/XL/dumptruck/dumptruck1.jpg,/static/Size_judgement/Stimuli/Size_stims/S/die/die8.jpg,1.0,dumptruck,die,XL,S,4.0,1.0,dumptruck4,die1,1.0,83.598,0.598,0.0,
83,,size_choice_confirmation,,html-keyboard-response,83,129013,0.0-1.0-107.0-0.0,0,0,64747,,,,,,26.0,,,,,,,,,,,,,,,,,,,,,,,,,,,,84.5,0.902,,
84,,iti,,html-keyboard-response,84,130019,0.0-1.0-108.0,0,0,64747,,,,,,,,,,,,,,,,,,,,,,,,,,,,,,,,,,85.5,1.0,,
85,,size_choice,,html-keyboard-response,85,130775,0.0-1.0-110.0,0,0,64747,,751.0,,,75.0,27.0,27.0,1.0,1500.0,M-XL,0.0,M,XL,2.0,4.0,coffeemaker,dumptruck,coffeemaker8,dumptruck5,67.0,174.0,/static/Size_judgement/Stimuli/Size_stims/M/coffeemaker/coffeemaker5.jpg,/static/Size_judgement/Stimuli/Size_stims/XL/dumptruck/dumptruck3.jpg,0.0,dumptruck,coffeemaker,XL,M,4.0,2.0,dumptruck5,coffeemaker8,1.0,86.251,0.751,0.0,
86,,size_choice_confirmation,,html-keyboard-response,86,131530,0.0-1.0-111.0-0.0,0,0,64747,,,,,,27.0,,,,,,,,,,,,,,,,,,,,,,,,,,,,87.0,0.749,,
87,,iti,,html-keyboard-response,87,133045,0.0-1.0-112.0,0,0,64747,,,,,,,,,,,,,,,,,,,,,,,,,,,,,,,,,,88.5,1.5,,
88,,size_choice,,html-keyboard-response,88,134221,0.0-1.0-114.0,0,0,64747,,1172.0,,,68.0,28.0,28.0,1.0,1500.0,XL-XL,,XL,XL,4.0,4.0,van,car,van6,car4,195.0,153.0,/static/Size_judgement/Stimuli/Size_stims/XL/van/van2.jpg,/static/Size_judgement/Stimuli/Size_stims/XL/car/car6.jpg,1.0,van,car,XL,XL,4.0,4.0,van6,car4,,89.672,1.172,0.0,
89,,size_choice_confirmation,,html-keyboard-response,89,134553,0.0-1.0-115.0-0.0,0,0,64747,,,,,,28.0,,,,,,,,,,,,,,,,,,,,,,,,,,,,90.0,0.328,,
90,,iti,,html-keyboard-response,90,136059,0.0-1.0-116.0,0,0,64747,,,,,,,,,,,,,,,,,,,,,,,,,,,,,,,,,,91.5,1.5,,
91,,size_choice,,html-keyboard-response,91,136962,0.0-1.0-118.0,0,0,64747,,899.0,,,68.0,29.0,29.0,1.0,1000.0,S-L,1.0,L,S,3.0,1.0,mailbox,thread,mailbox4,thread1,43.0,140.0,/static/Size_judgement/Stimuli/Size_stims/L/mailbox/mailbox5.jpg,/static/Size_judgement/Stimuli/Size_stims/S/thread/thread7.jpg,1.0,mailbox,thread,L,S,3.0,1.0,mailbox4,thread1,1.0,92.399,0.899,0.0,
92,,size_choice_confirmation,,html-keyboard-response,92,137570,0.0-1.0-119.0-0.0,0,0,64747,,,,,,29.0,,,,,,,,,,,,,,,,,,,,,,,,,,,,93.0,0.601,,
93,,iti,,html-keyboard-response,93,138579,0.0-1.0-120.0,0,0,64747,,,,,,,,,,,,,,,,,,,,,,,,,,,,,,,,,,94.0,1.0,,
94,,size_choice,,html-keyboard-response,94,139290,0.0-1.0-122.0,0,0,64747,,707.0,,,75.0,30.0,30.0,1.0,1000.0,M-XL,0.0,M,XL,2.0,4.0,basketball,dumptruck,basketball4,dumptruck9,53.0,178.0,/static/Size_judgement/Stimuli/Size_stims/M/basketball/basketball1.jpg,/static/Size_judgement/Stimuli/Size_stims/XL/dumptruck/dumptruck5.jpg,0.0,dumptruck,basketball,XL,M,4.0,2.0,dumptruck9,basketball4,1.0,94.707,0.707,0.0,
95,,size_choice_confirmation,,html-keyboard-response,95,140094,0.0-1.0-123.0-0.0,0,0,64747,,,,,,30.0,,,,,,,,,,,,,,,,,,,,,,,,,,,,95.5,0.793,,
96,,iti,,html-keyboard-response,96,141104,0.0-1.0-124.0,0,0,64747,,,,,,,,,,,,,,,,,,,,,,,,,,,,,,,,,,96.5,1.0,,
97,,size_choice,,html-keyboard-response,97,141813,0.0-1.0-126.0,0,0,64747,,706.0,,,75.0,31.0,31.0,1.0,1000.0,M-L,0.0,M,L,2.0,3.0,ketchup,cooler,ketchup6,cooler9,95.0,8.0,/static/Size_judgement/Stimuli/Size_stims/M/ketchup/ketchup1.jpg,/static/Size_judgement/Stimuli/Size_stims/L/cooler/cooler7.jpg,0.0,cooler,ketchup,L,M,3.0,2.0,cooler9,ketchup6,1.0,97.206,0.706,0.0,
98,,size_choice_confirmation,,html-keyboard-response,98,142616,0.0-1.0-127.0-0.0,0,0,64747,,,,,,31.0,,,,,,,,,,,,,,,,,,,,,,,,,,,,98.0,0.794,,
99,,iti,,html-keyboard-response,99,143625,0.0-1.0-128.0,0,0,64747,,,,,,,,,,,,,,,,,,,,,,,,,,,,,,,,,,99.0,1.0,,
100,,size_choice,,html-keyboard-response,100,144337,0.0-1.0-130.0,0,0,64747,,707.0,,,68.0,32.0,32.0,1.0,1000.0,XL-XL,,XL,XL,4.0,4.0,car,van,car6,van4,155.0,193.0,/static/Size_judgement/Stimuli/Size_stims/XL/car/car12.jpg,/static/Size_judgement/Stimuli/Size_stims/XL/van/van7.jpg,1.0,car,van,XL,XL,4.0,4.0,car6,van4,,99.707,0.707,0.0,
101,,size_choice_confirmation,,html-keyboard-response,101,145141,0.0-1.0-131.0-0.0,0,0,64747,,,,,,32.0,,,,,,,,,,,,,,,,,,,,,,,,,,,,100.5,0.793,,
102,,iti,,html-keyboard-response,102,146145,0.0-1.0-132.0,0,0,64747,,,,,,,,,,,,,,,,,,,,,,,,,,,,,,,,,,101.5,1.0,,
103,,size_choice,,html-keyboard-response,103,146895,0.0-1.0-134.0,0,0,64747,,745.0,,,75.0,33.0,33.0,1.0,1000.0,M-M,,M,M,2.0,2.0,hairdryer,basketball,hairdryer3,basketball10,72.0,59.0,/static/Size_judgement/Stimuli/Size_stims/M/hairdryer/hairdryer17.jpg,/static/Size_judgement/Stimuli/Size_stims/M/basketball/basketball4.jpg,0.0,basketball,hairdryer,M,M,2.0,2.0,basketball10,hairdryer3,,102.245,0.745,0.0,
104,,size_choice_confirmation,,html-keyboard-response,104,147658,0.0-1.0-135.0-0.0,0,0,64747,,,,,,33.0,,,,,,,,,,,,,,,,,,,,,,,,,,,,103.0,0.755,,
105,,iti,,html-keyboard-response,105,148664,0.0-1.0-136.0,0,0,64747,,,,,,,,,,,,,,,,,,,,,,,,,,,,,,,,,,104.0,1.0,,
106,,size_choice,,html-keyboard-response,106,149470,0.0-1.0-138.0,0,0,64747,,802.0,,,75.0,34.0,34.0,1.0,3000.0,S-M,0.0,S,M,1.0,2.0,screws,hairdryer,screws7,hairdryer1,126.0,70.0,/static/Size_judgement/Stimuli/Size_stims/S/screws/screws1.jpg,/static/Size_judgement/Stimuli/Size_stims/M/hairdryer/hairdryer11.jpg,0.0,hairdryer,screws,M,S,2.0,1.0,hairdryer1,screws7,1.0,104.802,0.802,0.0,
107,,size_choice_confirmation,,html-keyboard-response,107,150176,0.0-1.0-139.0-0.0,0,0,64747,,,,,,34.0,,,,,,,,,,,,,,,,,,,,,,,,,,,,105.5,0.698,,
108,,iti,,html-keyboard-response,108,153188,0.0-1.0-140.0,0,0,64747,,,,,,,,,,,,,,,,,,,,,,,,,,,,,,,,,,108.5,3.0,,
109,,size_choice,,html-keyboard-response,109,153825,0.0-1.0-142.0,0,0,64747,,634.0,,,68.0,35.0,35.0,1.0,1500.0,S-XL,1.0,XL,S,4.0,1.0,dumptruck,thread,dumptruck2,thread3,171.0,142.0,/static/Size_judgement/Stimuli/Size_stims/XL/dumptruck/dumptruck8.jpg,/static/Size_judgement/Stimuli/Size_stims/S/thread/thread4.jpg,1.0,dumptruck,thread,XL,S,4.0,1.0,dumptruck2,thread3,1.0,109.134,0.634,0.0,
110,,size_choice_confirmation,,html-keyboard-response,110,154701,0.0-1.0-143.0-0.0,0,0,64747,,,,,,35.0,,,,,,,,,,,,,,,,,,,,,,,,,,,,110.0,0.866,,
111,,iti,,html-keyboard-response,111,156205,0.0-1.0-144.0,0,0,64747,,,,,,,,,,,,,,,,,,,,,,,,,,,,,,,,,,111.5,1.5,,
112,,size_choice,,html-keyboard-response,112,157394,0.0-1.0-146.0,0,0,64747,,1186.0,,,75.0,36.0,36.0,1.0,2000.0,M-L,0.0,M,L,2.0,3.0,basketball,mailbox,basketball8,mailbox9,57.0,48.0,/static/Size_judgement/Stimuli/Size_stims/M/basketball/basketball7.jpg,/static/Size_judgement/Stimuli/Size_stims/L/mailbox/mailbox9.jpg,0.0,mailbox,basketball,L,M,3.0,2.0,mailbox9,basketball8,1.0,112.686,1.186,0.0,
113,,size_choice_confirmation,,html-keyboard-response,113,157713,0.0-1.0-147.0-0.0,0,0,64747,,,,,,36.0,,,,,,,,,,,,,,,,,,,,,,,,,,,,113.0,0.314,,
114,,iti,,html-keyboard-response,114,159719,0.0-1.0-148.0,0,0,64747,,,,,,,,,,,,,,,,,,,,,,,,,,,,,,,,,,115.0,2.0,,
115,,size_choice,,html-keyboard-response,115,160401,0.0-1.0-150.0,0,0,64747,,679.0,,,75.0,37.0,37.0,1.0,2000.0,S-XL,0.0,S,XL,1.0,4.0,thread,crane,thread5,crane8,144.0,167.0,/static/Size_judgement/Stimuli/Size_stims/S/thread/thread1.jpg,/static/Size_judgement/Stimuli/Size_stims/XL/crane/crane10.jpg,0.0,crane,thread,XL,S,4.0,1.0,crane8,thread5,1.0,115.679,0.679,0.0,
116,,size_choice_confirmation,,html-keyboard-response,116,161232,0.0-1.0-151.0-0.0,0,0,64747,,,,,,37.0,,,,,,,,,,,,,,,,,,,,,,,,,,,,116.5,0.821,,
117,,iti,,html-keyboard-response,117,163235,0.0-1.0-152.0,0,0,64747,,,,,,,,,,,,,,,,,,,,,,,,,,,,,,,,,,118.5,2.0,,
118,,size_choice,,html-keyboard-response,118,163957,0.0-1.0-154.0,0,0,64747,,718.0,,,75.0,38.0,38.0,1.0,1000.0,S-XL,0.0,S,XL,1.0,4.0,paperclip,van,paperclip4,van3,113.0,192.0,/static/Size_judgement/Stimuli/Size_stims/S/paperclip/paperclip3.jpg,/static/Size_judgement/Stimuli/Size_stims/XL/van/van6.jpg,0.0,van,paperclip,XL,S,4.0,1.0,van3,paperclip4,1.0,119.218,0.718,0.0,
119,,size_choice_confirmation,,html-keyboard-response,119,164750,0.0-1.0-155.0-0.0,0,0,64747,,,,,,38.0,,,,,,,,,,,,,,,,,,,,,,,,,,,,120.0,0.782,,
120,,iti,,html-keyboard-response,120,165762,0.0-1.0-156.0,0,0,64747,,,,,,,,,,,,,,,,,,,,,,,,,,,,,,,,,,121.0,1.0,,
121,,size_choice,,html-keyboard-response,121,166763,0.0-1.0-158.0,0,0,64747,,997.0,,,68.0,39.0,39.0,1.0,3500.0,L-XL,1.0,XL,L,4.0,3.0,van,mailbox,van10,mailbox10,199.0,49.0,/static/Size_judgement/Stimuli/Size_stims/XL/van/van8.jpg,/static/Size_judgement/Stimuli/Size_stims/L/mailbox/mailbox8.jpg,1.0,van,mailbox,XL,L,4.0,3.0,van10,mailbox10,1.0,121.997,0.997,0.0,
122,,size_choice_confirmation,,html-keyboard-response,122,167278,0.0-1.0-159.0-0.0,0,0,64747,,,,,,39.0,,,,,,,,,,,,,,,,,,,,,,,,,,,,122.5,0.503,,
123,,iti,,html-keyboard-response,123,170787,0.0-1.0-160.0,0,0,64747,,,,,,,,,,,,,,,,,,,,,,,,,,,,,,,,,,126.0,3.5,,
124,,size_choice,,html-keyboard-response,124,171908,0.0-1.0-162.0,0,0,64747,,1117.0,,,68.0,40.0,40.0,1.0,3000.0,S-L,1.0,L,S,3.0,1.0,mailbox,paperclip,mailbox7,paperclip5,46.0,114.0,/static/Size_judgement/Stimuli/Size_stims/L/mailbox/mailbox7.jpg,/static/Size_judgement/Stimuli/Size_stims/S/paperclip/paperclip2.jpg,1.0,mailbox,paperclip,L,S,3.0,1.0,mailbox7,paperclip5,1.0,127.117,1.117,0.0,
125,,size_choice_confirmation,,html-keyboard-response,125,172295,0.0-1.0-163.0-0.0,0,0,64747,,,,,,40.0,,,,,,,,,,,,,,,,,,,,,,,,,,,,127.5,0.383,,
126,,iti,,html-keyboard-response,126,175301,0.0-1.0-164.0,0,0,64747,,,,,,,,,,,,,,,,,,,,,,,,,,,,,,,,,,130.5,3.0,,
127,,size_choice,,html-keyboard-response,127,176000,0.0-1.0-166.0,0,0,64747,,694.0,,,68.0,41.0,41.0,1.0,1000.0,S-L,1.0,L,S,3.0,1.0,dishwasher,thread,dishwasher3,thread2,22.0,141.0,/static/Size_judgement/Stimuli/Size_stims/L/dishwasher/dishwasher8.jpg,/static/Size_judgement/Stimuli/Size_stims/S/thread/thread6.jpg,1.0,dishwasher,thread,L,S,3.0,1.0,dishwasher3,thread2,1.0,131.194,0.694,0.0,
128,,size_choice_confirmation,,html-keyboard-response,128,176811,0.0-1.0-167.0-0.0,0,0,64747,,,,,,41.0,,,,,,,,,,,,,,,,,,,,,,,,,,,,132.0,0.806,,
129,,iti,,html-keyboard-response,129,177815,0.0-1.0-168.0,0,0,64747,,,,,,,,,,,,,,,,,,,,,,,,,,,,,,,,,,133.0,1.0,,
130,,size_choice,,html-keyboard-response,130,179016,0.0-1.0-170.0,0,0,64747,,1197.0,,,68.0,42.0,42.0,1.0,1500.0,S-L,1.0,L,S,3.0,1.0,cooler,paperclip,cooler6,paperclip2,5.0,111.0,/static/Size_judgement/Stimuli/Size_stims/L/cooler/cooler1.jpg,/static/Size_judgement/Stimuli/Size_stims/S/paperclip/paperclip8.jpg,1.0,cooler,paperclip,L,S,3.0,1.0,cooler6,paperclip2,1.0,134.197,1.197,0.0,
131,,size_choice_confirmation,,html-keyboard-response,131,179330,0.0-1.0-171.0-0.0,0,0,64747,,,,,,42.0,,,,,,,,,,,,,,,,,,,,,,,,,,,,134.5,0.303,,
132,,iti,,html-keyboard-response,132,180834,0.0-1.0-172.0,0,0,64747,,,,,,,,,,,,,,,,,,,,,,,,,,,,,,,,,,136.0,1.5,,
133,,size_choice,,html-keyboard-response,133,182077,0.0-1.0-174.0,0,0,64747,,1238.0,,,75.0,43.0,43.0,1.0,1500.0,M-L,0.0,M,L,2.0,3.0,handsaw,garbagecan,handsaw3,garbagecan2,82.0,31.0,/static/Size_judgement/Stimuli/Size_stims/M/handsaw/handsaw2.jpg,/static/Size_judgement/Stimuli/Size_stims/L/garbagecan/garbagecan5.jpg,0.0,garbagecan,handsaw,L,M,3.0,2.0,garbagecan2,handsaw3,1.0,137.238,1.238,0.0,
134,,size_choice_confirmation,,html-keyboard-response,134,182346,0.0-1.0-175.0-0.0,0,0,64747,,,,,,43.0,,,,,,,,,,,,,,,,,,,,,,,,,,,,137.5,0.262,,
135,,iti,,html-keyboard-response,135,183853,0.0-1.0-176.0,0,0,64747,,,,,,,,,,,,,,,,,,,,,,,,,,,,,,,,,,139.0,1.5,,
136,,size_choice,,html-keyboard-response,136,185016,0.0-1.0-178.0,0,0,64747,,1161.0,,,75.0,44.0,44.0,1.0,1500.0,S-XL,0.0,S,XL,1.0,4.0,thread,tractor,thread4,tractor1,143.0,180.0,/static/Size_judgement/Stimuli/Size_stims/S/thread/thread5.jpg,/static/Size_judgement/Stimuli/Size_stims/XL/tractor/tractor6.jpg,0.0,tractor,thread,XL,S,4.0,1.0,tractor1,thread4,1.0,140.161,1.161,0.0,
137,,size_choice_confirmation,,html-keyboard-response,137,185361,0.0-1.0-179.0-0.0,0,0,64747,,,,,,44.0,,,,,,,,,,,,,,,,,,,,,,,,,,,,140.5,0.339,,
138,,iti,,html-keyboard-response,138,186866,0.0-1.0-180.0,0,0,64747,,,,,,,,,,,,,,,,,,,,,,,,,,,,,,,,,,142.0,1.5,,
139,,block_over,,html-keyboard-response,139,239413,0.0-1.0-181.0-0.0,0,0,64747,,52542.0,,,68.0,44.0,,,,,,,,,,,,,,,,,,,,,,,,,,,,,,,
140,,size_choice,,html-keyboard-response,140,240622,0.0-1.0-182.0,0,0,64747,,1201.0,,,75.0,45.0,45.0,2.0,1000.0,XL-XL,,XL,XL,4.0,4.0,crane,van,crane10,van8,169.0,197.0,/static/Size_judgement/Stimuli/Size_stims/XL/crane/crane9.jpg,/static/Size_judgement/Stimuli/Size_stims/XL/van/van10.jpg,0.0,van,crane,XL,XL,4.0,4.0,van8,crane10,,143.201,1.201,0.0,
141,,size_choice_confirmation,,html-keyboard-response,141,240929,0.0-1.0-183.0-0.0,0,0,64747,,,,,,45.0,,,,,,,,,,,,,,,,,,,,,,,,,,,,143.5,0.299,,
142,,iti,,html-keyboard-response,142,241939,0.0-1.0-184.0,0,0,64747,,,,,,,,,,,,,,,,,,,,,,,,,,,,,,,,,,144.5,1.0,,
143,,size_choice,,html-keyboard-response,143,242766,0.0-1.0-186.0,0,0,64747,,823.0,,,75.0,46.0,46.0,2.0,3500.0,S-L,0.0,S,L,1.0,3.0,thread,cooler,thread8,cooler3,147.0,2.0,/static/Size_judgement/Stimuli/Size_stims/S/thread/thread10.jpg,/static/Size_judgement/Stimuli/Size_stims/L/cooler/cooler2.jpg,0.0,cooler,thread,L,S,3.0,1.0,cooler3,thread8,1.0,145.323,0.823,0.0,
144,,size_choice_confirmation,,html-keyboard-response,144,243452,0.0-1.0-187.0-0.0,0,0,64747,,,,,,46.0,,,,,,,,,,,,,,,,,,,,,,,,,,,,146.0,0.677,,
145,,iti,,html-keyboard-response,145,246957,0.0-1.0-188.0,0,0,64747,,,,,,,,,,,,,,,,,,,,,,,,,,,,,,,,,,149.5,3.5,,
146,,size_choice,,html-keyboard-response,146,248006,0.0-1.0-190.0,0,0,64747,,1044.0,,,75.0,47.0,47.0,2.0,1000.0,M-XL,0.0,M,XL,2.0,4.0,coffeemaker,crane,coffeemaker9,crane2,68.0,161.0,/static/Size_judgement/Stimuli/Size_stims/M/coffeemaker/coffeemaker7.jpg,/static/Size_judgement/Stimuli/Size_stims/XL/crane/crane6.jpg,0.0,crane,coffeemaker,XL,M,4.0,2.0,crane2,coffeemaker9,1.0,150.544,1.044,0.0,
147,,size_choice_confirmation,,html-keyboard-response,147,248472,0.0-1.0-191.0-0.0,0,0,64747,,,,,,47.0,,,,,,,,,,,,,,,,,,,,,,,,,,,,151.0,0.456,,
148,,iti,,html-keyboard-response,148,249482,0.0-1.0-192.0,0,0,64747,,,,,,,,,,,,,,,,,,,,,,,,,,,,,,,,,,152.0,1.0,,
149,,size_choice,,html-keyboard-response,149,250295,0.0-1.0-194.0,0,0,64747,,810.0,,,68.0,48.0,48.0,2.0,1000.0,S-L,1.0,L,S,3.0,1.0,garbagecan,die,garbagecan1,die5,30.0,104.0,/static/Size_judgement/Stimuli/Size_stims/L/garbagecan/garbagecan4.jpg,/static/Size_judgement/Stimuli/Size_stims/S/die/die3.jpg,1.0,garbagecan,die,L,S,3.0,1.0,garbagecan1,die5,1.0,152.81,0.81,0.0,
150,,size_choice_confirmation,,html-keyboard-response,150,250995,0.0-1.0-195.0-0.0,0,0,64747,,,,,,48.0,,,,,,,,,,,,,,,,,,,,,,,,,,,,153.5,0.69,,
151,,iti,,html-keyboard-response,151,252002,0.0-1.0-196.0,0,0,64747,,,,,,,,,,,,,,,,,,,,,,,,,,,,,,,,,,154.5,1.0,,
152,,size_choice,,html-keyboard-response,152,252933,0.0-1.0-198.0,0,0,64747,,926.0,,,75.0,49.0,49.0,2.0,1500.0,M-L,0.0,M,L,2.0,3.0,hairdryer,deskchair,hairdryer8,deskchair5,77.0,14.0,/static/Size_judgement/Stimuli/Size_stims/M/hairdryer/hairdryer1.jpg,/static/Size_judgement/Stimuli/Size_stims/L/deskchair/deskchair7.jpg,0.0,deskchair,hairdryer,L,M,3.0,2.0,deskchair5,hairdryer8,1.0,155.426,0.926,0.0,
153,,size_choice_confirmation,,html-keyboard-response,153,253513,0.0-1.0-199.0-0.0,0,0,64747,,,,,,49.0,,,,,,,,,,,,,,,,,,,,,,,,,,,,156.0,0.574,,
154,,iti,,html-keyboard-response,154,255022,0.0-1.0-200.0,0,0,64747,,,,,,,,,,,,,,,,,,,,,,,,,,,,,,,,,,157.5,1.5,,
155,,size_choice,,html-keyboard-response,155,255773,0.0-1.0-202.0,0,0,64747,,746.0,,,75.0,50.0,50.0,2.0,3500.0,S-XL,0.0,S,XL,1.0,4.0,die,tractor,die10,tractor3,109.0,182.0,/static/Size_judgement/Stimuli/Size_stims/S/die/die6.jpg,/static/Size_judgement/Stimuli/Size_stims/XL/tractor/tractor5.jpg,0.0,tractor,die,XL,S,4.0,1.0,tractor3,die10,1.0,158.246,0.746,0.0,
156,,size_choice_confirmation,,html-keyboard-response,156,256536,0.0-1.0-203.0-0.0,0,0,64747,,,,,,50.0,,,,,,,,,,,,,,,,,,,,,,,,,,,,159.0,0.754,,
157,,iti,,html-keyboard-response,157,260042,0.0-1.0-204.0,0,0,64747,,,,,,,,,,,,,,,,,,,,,,,,,,,,,,,,,,162.5,3.5,,
158,,size_choice,,html-keyboard-response,158,260709,0.0-1.0-206.0,0,0,64747,,663.0,,,75.0,51.0,51.0,2.0,1000.0,S-XL,0.0,S,XL,1.0,4.0,screws,van,screws4,van1,123.0,190.0,/static/Size_judgement/Stimuli/Size_stims/S/screws/screws6.jpg,/static/Size_judgement/Stimuli/Size_stims/XL/van/van5.jpg,0.0,van,screws,XL,S,4.0,1.0,van1,screws4,1.0,163.163,0.663,0.0,
159,,size_choice_confirmation,,html-keyboard-response,159,261553,0.0-1.0-207.0-0.0,0,0,64747,,,,,,51.0,,,,,,,,,,,,,,,,,,,,,,,,,,,,164.0,0.837,,
160,,iti,,html-keyboard-response,160,262557,0.0-1.0-208.0,0,0,64747,,,,,,,,,,,,,,,,,,,,,,,,,,,,,,,,,,165.0,1.0,,
161,,size_choice,,html-keyboard-response,161,263348,0.0-1.0-210.0,0,0,64747,,787.0,,,68.0,52.0,52.0,2.0,1500.0,S-L,1.0,L,S,3.0,1.0,cooler,paperclip,cooler10,paperclip8,9.0,117.0,/static/Size_judgement/Stimuli/Size_stims/L/cooler/cooler6.jpg,/static/Size_judgement/Stimuli/Size_stims/S/paperclip/paperclip5.jpg,1.0,cooler,paperclip,L,S,3.0,1.0,cooler10,paperclip8,1.0,165.787,0.787,0.0,
162,,size_choice_confirmation,,html-keyboard-response,162,264073,0.0-1.0-211.0-0.0,0,0,64747,,,,,,52.0,,,,,,,,,,,,,,,,,,,,,,,,,,,,166.5,0.713,,
163,,iti,,html-keyboard-response,163,265582,0.0-1.0-212.0,0,0,64747,,,,,,,,,,,,,,,,,,,,,,,,,,,,,,,,,,168.0,1.5,,
164,,size_choice,,html-keyboard-response,164,266200,0.0-1.0-214.0,0,0,64747,,615.0,,,75.0,53.0,53.0,2.0,2000.0,S-L,0.0,S,L,1.0,3.0,screws,mailbox,screws1,mailbox5,120.0,44.0,/static/Size_judgement/Stimuli/Size_stims/S/screws/screws4.jpg,/static/Size_judgement/Stimuli/Size_stims/L/mailbox/mailbox4.jpg,0.0,mailbox,screws,L,S,3.0,1.0,mailbox5,screws1,1.0,168.615,0.615,0.0,
165,,size_choice_confirmation,,html-keyboard-response,165,267097,0.0-1.0-215.0-0.0,0,0,64747,,,,,,53.0,,,,,,,,,,,,,,,,,,,,,,,,,,,,169.5,0.885,,
166,,iti,,html-keyboard-response,166,269104,0.0-1.0-216.0,0,0,64747,,,,,,,,,,,,,,,,,,,,,,,,,,,,,,,,,,171.5,2.0,,
167,,size_choice,,html-keyboard-response,167,270212,0.0-1.0-218.0,0,0,64747,,1105.0,,,75.0,54.0,54.0,2.0,1000.0,S-L,0.0,S,L,1.0,3.0,screws,deskchair,screws2,deskchair7,121.0,16.0,/static/Size_judgement/Stimuli/Size_stims/S/screws/screws5.jpg,/static/Size_judgement/Stimuli/Size_stims/L/deskchair/deskchair4.jpg,0.0,deskchair,screws,L,S,3.0,1.0,deskchair7,screws2,1.0,172.605,1.105,0.0,
168,,size_choice_confirmation,,html-keyboard-response,168,270615,0.0-1.0-219.0-0.0,0,0,64747,,,,,,54.0,,,,,,,,,,,,,,,,,,,,,,,,,,,,173.0,0.395,,
169,,iti,,html-keyboard-response,169,271625,0.0-1.0-220.0,0,0,64747,,,,,,,,,,,,,,,,,,,,,,,,,,,,,,,,,,174.0,1.0,,
170,,size_choice,,html-keyboard-response,170,272589,0.0-1.0-222.0,0,0,64747,,959.0,,,68.0,55.0,55.0,2.0,1500.0,M-XL,1.0,XL,M,4.0,2.0,dumptruck,ketchup,dumptruck1,ketchup10,170.0,99.0,/static/Size_judgement/Stimuli/Size_stims/XL/dumptruck/dumptruck9.jpg,/static/Size_judgement/Stimuli/Size_stims/M/ketchup/ketchup6.jpg,1.0,dumptruck,ketchup,XL,M,4.0,2.0,dumptruck1,ketchup10,1.0,174.959,0.959,0.0,
171,,size_choice_confirmation,,html-keyboard-response,171,273135,0.0-1.0-223.0-0.0,0,0,64747,,,,,,55.0,,,,,,,,,,,,,,,,,,,,,,,,,,,,175.5,0.541,,
172,,iti,,html-keyboard-response,172,274648,0.0-1.0-224.0,0,0,64747,,,,,,,,,,,,,,,,,,,,,,,,,,,,,,,,,,177.0,1.5,,
173,,size_choice,,html-keyboard-response,173,275360,0.0-1.0-226.0,0,0,64747,,708.0,,,68.0,56.0,56.0,2.0,1500.0,L-XL,1.0,XL,L,4.0,3.0,car,dishwasher,car10,dishwasher2,159.0,21.0,/static/Size_judgement/Stimuli/Size_stims/XL/car/car9.jpg,/static/Size_judgement/Stimuli/Size_stims/L/dishwasher/dishwasher9.jpg,1.0,car,dishwasher,XL,L,4.0,3.0,car10,dishwasher2,1.0,177.708,0.708,0.0,
174,,size_choice_confirmation,,html-keyboard-response,174,276169,0.0-1.0-227.0-0.0,0,0,64747,,,,,,56.0,,,,,,,,,,,,,,,,,,,,,,,,,,,,178.5,0.792,,
175,,iti,,html-keyboard-response,175,277676,0.0-1.0-228.0,0,0,64747,,,,,,,,,,,,,,,,,,,,,,,,,,,,,,,,,,180.0,1.5,,
176,,size_choice,,html-keyboard-response,176,278446,0.0-1.0-230.0,0,0,64747,,766.0,,,75.0,57.0,57.0,2.0,1000.0,S-S,,S,S,1.0,1.0,die,paperclip,die8,paperclip9,107.0,118.0,/static/Size_judgement/Stimuli/Size_stims/S/die/die5.jpg,/static/Size_judgement/Stimuli/Size_stims/S/paperclip/paperclip4.jpg,0.0,paperclip,die,S,S,1.0,1.0,paperclip9,die8,,180.766,0.766,0.0,
177,,size_choice_confirmation,,html-keyboard-response,177,279187,0.0-1.0-231.0-0.0,0,0,64747,,,,,,57.0,,,,,,,,,,,,,,,,,,,,,,,,,,,,181.5,0.734,,
178,,iti,,html-keyboard-response,178,280197,0.0-1.0-232.0,0,0,64747,,,,,,,,,,,,,,,,,,,,,,,,,,,,,,,,,,182.5,1.0,,
179,,size_choice,,html-keyboard-response,179,281106,0.0-1.0-234.0,0,0,64747,,905.0,,,75.0,58.0,58.0,2.0,2000.0,M-M,,M,M,2.0,2.0,ketchup,handsaw,ketchup9,handsaw5,98.0,84.0,/static/Size_judgement/Stimuli/Size_stims/M/ketchup/ketchup7.jpg,/static/Size_judgement/Stimuli/Size_stims/M/handsaw/handsaw1.jpg,0.0,handsaw,ketchup,M,M,2.0,2.0,handsaw5,ketchup9,,183.405,0.905,0.0,
180,,size_choice_confirmation,,html-keyboard-response,180,281707,0.0-1.0-235.0-0.0,0,0,64747,,,,,,58.0,,,,,,,,,,,,,,,,,,,,,,,,,,,,184.0,0.595,,
181,,iti,,html-keyboard-response,181,283712,0.0-1.0-236.0,0,0,64747,,,,,,,,,,,,,,,,,,,,,,,,,,,,,,,,,,186.0,2.0,,
182,,size_choice,,html-keyboard-response,182,284457,0.0-1.0-238.0,0,0,64747,,740.0,,,75.0,59.0,59.0,2.0,2000.0,M-XL,0.0,M,XL,2.0,4.0,coffeemaker,crane,coffeemaker1,crane9,60.0,168.0,/static/Size_judgement/Stimuli/Size_stims/M/coffeemaker/coffeemaker14.jpg,/static/Size_judgement/Stimuli/Size_stims/XL/crane/crane8.jpg,0.0,crane,coffeemaker,XL,M,4.0,2.0,crane9,coffeemaker1,1.0,186.74,0.74,0.0,
183,,size_choice_confirmation,,html-keyboard-response,183,285227,0.0-1.0-239.0-0.0,0,0,64747,,,,,,59.0,,,,,,,,,,,,,,,,,,,,,,,,,,,,187.5,0.76,,
184,,iti,,html-keyboard-response,184,287234,0.0-1.0-240.0,0,0,64747,,,,,,,,,,,,,,,,,,,,,,,,,,,,,,,,,,189.5,2.0,,
185,,size_choice,,html-keyboard-response,185,288304,0.0-1.0-242.0,0,0,64747,,1066.0,,,75.0,60.0,60.0,2.0,1000.0,M-L,0.0,M,L,2.0,3.0,hairdryer,mailbox,hairdryer9,mailbox6,78.0,45.0,/static/Size_judgement/Stimuli/Size_stims/M/hairdryer/hairdryer5.jpg,/static/Size_judgement/Stimuli/Size_stims/L/mailbox/mailbox6.jpg,0.0,mailbox,hairdryer,L,M,3.0,2.0,mailbox6,hairdryer9,1.0,190.566,1.066,0.0,
186,,size_choice_confirmation,,html-keyboard-response,186,288746,0.0-1.0-243.0-0.0,0,0,64747,,,,,,60.0,,,,,,,,,,,,,,,,,,,,,,,,,,,,191.0,0.434,,
187,,iti,,html-keyboard-response,187,289750,0.0-1.0-244.0,0,0,64747,,,,,,,,,,,,,,,,,,,,,,,,,,,,,,,,,,192.0,1.0,,
188,,size_choice,,html-keyboard-response,188,290446,0.0-1.0-246.0,0,0,64747,,691.0,,,68.0,61.0,61.0,2.0,1500.0,S-XL,1.0,XL,S,4.0,1.0,tractor,die,tractor4,die9,183.0,108.0,/static/Size_judgement/Stimuli/Size_stims/XL/tractor/tractor4.jpg,/static/Size_judgement/Stimuli/Size_stims/S/die/die7.jpg,1.0,tractor,die,XL,S,4.0,1.0,tractor4,die9,1.0,192.691,0.691,0.0,
189,,size_choice_confirmation,,html-keyboard-response,189,291263,0.0-1.0-247.0-0.0,0,0,64747,,,,,,61.0,,,,,,,,,,,,,,,,,,,,,,,,,,,,193.5,0.809,,
190,,iti,,html-keyboard-response,190,292769,0.0-1.0-248.0,0,0,64747,,,,,,,,,,,,,,,,,,,,,,,,,,,,,,,,,,195.0,1.5,,
191,,size_choice,,html-keyboard-response,191,293436,0.0-1.0-250.0,0,0,64747,,662.0,,,75.0,62.0,62.0,2.0,1000.0,XL-XL,,XL,XL,4.0,4.0,van,tractor,van7,tractor10,196.0,189.0,/static/Size_judgement/Stimuli/Size_stims/XL/van/van1.jpg,/static/Size_judgement/Stimuli/Size_stims/XL/tractor/tractor8.jpg,0.0,tractor,van,XL,XL,4.0,4.0,tractor10,van7,,195.662,0.662,0.0,
192,,size_choice_confirmation,,html-keyboard-response,192,294279,0.0-1.0-251.0-0.0,0,0,64747,,,,,,62.0,,,,,,,,,,,,,,,,,,,,,,,,,,,,196.5,0.838,,
193,,iti,,html-keyboard-response,193,295284,0.0-1.0-252.0,0,0,64747,,,,,,,,,,,,,,,,,,,,,,,,,,,,,,,,,,197.5,1.0,,
194,,size_choice,,html-keyboard-response,194,295849,0.0-1.0-254.0,0,0,64747,,560.0,,,75.0,63.0,63.0,2.0,3500.0,S-XL,0.0,S,XL,1.0,4.0,paperclip,tractor,paperclip7,tractor7,116.0,186.0,/static/Size_judgement/Stimuli/Size_stims/S/paperclip/paperclip7.jpg,/static/Size_judgement/Stimuli/Size_stims/XL/tractor/tractor2.jpg,0.0,tractor,paperclip,XL,S,4.0,1.0,tractor7,paperclip7,1.0,198.06,0.56,0.0,
195,,size_choice_confirmation,,html-keyboard-response,195,296798,0.0-1.0-255.0-0.0,0,0,64747,,,,,,63.0,,,,,,,,,,,,,,,,,,,,,,,,,,,,199.0,0.94,,
196,,iti,,html-keyboard-response,196,300307,0.0-1.0-256.0,0,0,64747,,,,,,,,,,,,,,,,,,,,,,,,,,,,,,,,,,202.5,3.5,,
197,,size_choice,,html-keyboard-response,197,301063,0.0-1.0-258.0,0,0,64747,,751.0,,,68.0,64.0,64.0,2.0,2000.0,M-L,0.0,M,L,2.0,3.0,basketball,deskchair,basketball3,deskchair10,52.0,19.0,/static/Size_judgement/Stimuli/Size_stims/M/basketball/basketball10.jpg,/static/Size_judgement/Stimuli/Size_stims/L/deskchair/deskchair2.jpg,1.0,basketball,deskchair,M,L,2.0,3.0,basketball3,deskchair10,0.0,203.251,0.751,0.0,
198,,size_choice_confirmation,,html-keyboard-response,198,301823,0.0-1.0-259.0-0.0,0,0,64747,,,,,,64.0,,,,,,,,,,,,,,,,,,,,,,,,,,,,204.0,0.749,,
199,,iti,,html-keyboard-response,199,303830,0.0-1.0-260.0,0,0,64747,,,,,,,,,,,,,,,,,,,,,,,,,,,,,,,,,,206.0,2.0,,
200,,size_choice,,html-keyboard-response,200,304704,0.0-1.0-262.0,0,0,64747,,869.0,,,68.0,65.0,65.0,2.0,1000.0,M-XL,1.0,XL,M,4.0,2.0,crane,coffeemaker,crane4,coffeemaker10,163.0,69.0,/static/Size_judgement/Stimuli/Size_stims/XL/crane/crane5.jpg,/static/Size_judgement/Stimuli/Size_stims/M/coffeemaker/coffeemaker18.jpg,1.0,crane,coffeemaker,XL,M,4.0,2.0,crane4,coffeemaker10,1.0,206.869,0.869,0.0,
201,,size_choice_confirmation,,html-keyboard-response,201,305341,0.0-1.0-263.0-0.0,0,0,64747,,,,,,65.0,,,,,,,,,,,,,,,,,,,,,,,,,,,,207.5,0.631,,
202,,iti,,html-keyboard-response,202,306354,0.0-1.0-264.0,0,0,64747,,,,,,,,,,,,,,,,,,,,,,,,,,,,,,,,,,208.5,1.0,,
203,,size_choice,,html-keyboard-response,203,306976,0.0-1.0-266.0,0,0,64747,,619.0,,,75.0,66.0,66.0,2.0,1500.0,S-XL,0.0,S,XL,1.0,4.0,thread,dumptruck,thread7,dumptruck7,146.0,176.0,/static/Size_judgement/Stimuli/Size_stims/S/thread/thread3.jpg,/static/Size_judgement/Stimuli/Size_stims/XL/dumptruck/dumptruck6.jpg,0.0,dumptruck,thread,XL,S,4.0,1.0,dumptruck7,thread7,1.0,209.119,0.619,0.0,
204,,size_choice_confirmation,,html-keyboard-response,204,307865,0.0-1.0-267.0-0.0,0,0,64747,,,,,,66.0,,,,,,,,,,,,,,,,,,,,,,,,,,,,210.0,0.881,,
205,,iti,,html-keyboard-response,205,309377,0.0-1.0-268.0,0,0,64747,,,,,,,,,,,,,,,,,,,,,,,,,,,,,,,,,,211.5,1.5,,
206,,size_choice,,html-keyboard-response,206,310207,0.0-1.0-270.0,0,0,64747,,826.0,,,75.0,67.0,67.0,2.0,1000.0,XL-XL,,XL,XL,4.0,4.0,car,dumptruck,car8,dumptruck8,157.0,177.0,/static/Size_judgement/Stimuli/Size_stims/XL/car/car14.jpg,/static/Size_judgement/Stimuli/Size_stims/XL/dumptruck/dumptruck7.jpg,0.0,dumptruck,car,XL,XL,4.0,4.0,dumptruck8,car8,,212.326,0.826,0.0,
207,,size_choice_confirmation,,html-keyboard-response,207,310891,0.0-1.0-271.0-0.0,0,0,64747,,,,,,67.0,,,,,,,,,,,,,,,,,,,,,,,,,,,,213.0,0.674,,
208,,iti,,html-keyboard-response,208,311898,0.0-1.0-272.0,0,0,64747,,,,,,,,,,,,,,,,,,,,,,,,,,,,,,,,,,214.0,1.0,,
209,,size_choice,,html-keyboard-response,209,312893,0.0-1.0-274.0,0,0,64747,,991.0,,,75.0,68.0,68.0,2.0,3000.0,M-L,0.0,M,L,2.0,3.0,coffeemaker,cooler,coffeemaker6,cooler1,65.0,0.0,/static/Size_judgement/Stimuli/Size_stims/M/coffeemaker/coffeemaker8.jpg,/static/Size_judgement/Stimuli/Size_stims/L/cooler/cooler8.jpg,0.0,cooler,coffeemaker,L,M,3.0,2.0,cooler1,coffeemaker6,1.0,214.991,0.991,0.0,
210,,size_choice_confirmation,,html-keyboard-response,210,313410,0.0-1.0-275.0-0.0,0,0,64747,,,,,,68.0,,,,,,,,,,,,,,,,,,,,,,,,,,,,215.5,0.509,,
211,,iti,,html-keyboard-response,211,316415,0.0-1.0-276.0,0,0,64747,,,,,,,,,,,,,,,,,,,,,,,,,,,,,,,,,,218.5,3.0,,
212,,size_choice,,html-keyboard-response,212,317409,0.0-1.0-278.0,0,0,64747,,990.0,,,68.0,69.0,69.0,2.0,2000.0,M-L,1.0,L,M,3.0,2.0,cooler,handsaw,cooler5,handsaw4,4.0,83.0,/static/Size_judgement/Stimuli/Size_stims/L/cooler/cooler10.jpg,/static/Size_judgement/Stimuli/Size_stims/M/handsaw/handsaw3.jpg,1.0,cooler,handsaw,L,M,3.0,2.0,cooler5,handsaw4,1.0,219.49,0.99,0.0,
213,,size_choice_confirmation,,html-keyboard-response,213,317926,0.0-1.0-279.0-0.0,0,0,64747,,,,,,69.0,,,,,,,,,,,,,,,,,,,,,,,,,,,,220.0,0.51,,
214,,iti,,html-keyboard-response,214,319936,0.0-1.0-280.0,0,0,64747,,,,,,,,,,,,,,,,,,,,,,,,,,,,,,,,,,222.0,2.0,,
215,,size_choice,,html-keyboard-response,215,320835,0.0-1.0-282.0,0,0,64747,,896.0,,,68.0,70.0,70.0,2.0,1000.0,M-XL,1.0,XL,M,4.0,2.0,car,basketball,car7,basketball2,156.0,51.0,/static/Size_judgement/Stimuli/Size_stims/XL/car/car13.jpg,/static/Size_judgement/Stimuli/Size_stims/M/basketball/basketball8.jpg,1.0,car,basketball,XL,M,4.0,2.0,car7,basketball2,1.0,222.896,0.896,0.0,
216,,size_choice_confirmation,,html-keyboard-response,216,321460,0.0-1.0-283.0-0.0,0,0,64747,,,,,,70.0,,,,,,,,,,,,,,,,,,,,,,,,,,,,223.5,0.604,,
217,,iti,,html-keyboard-response,217,322470,0.0-1.0-284.0,0,0,64747,,,,,,,,,,,,,,,,,,,,,,,,,,,,,,,,,,224.5,1.0,,
218,,size_choice,,html-keyboard-response,218,323131,0.0-1.0-286.0,0,0,64747,,657.0,,,75.0,71.0,71.0,2.0,1000.0,S-L,0.0,S,L,1.0,3.0,teabag,garbagecan,teabag8,garbagecan3,137.0,32.0,/static/Size_judgement/Stimuli/Size_stims/S/teabag/teabag7.jpg,/static/Size_judgement/Stimuli/Size_stims/L/garbagecan/garbagecan7.jpg,0.0,garbagecan,teabag,L,S,3.0,1.0,garbagecan3,teabag8,1.0,225.157,0.657,0.0,
219,,size_choice_confirmation,,html-keyboard-response,219,323983,0.0-1.0-287.0-0.0,0,0,64747,,,,,,71.0,,,,,,,,,,,,,,,,,,,,,,,,,,,,226.0,0.843,,
220,,iti,,html-keyboard-response,220,324991,0.0-1.0-288.0,0,0,64747,,,,,,,,,,,,,,,,,,,,,,,,,,,,,,,,,,227.0,1.0,,
221,,size_choice,,html-keyboard-response,221,326022,0.0-1.0-290.0,0,0,64747,,1027.0,,,75.0,72.0,72.0,2.0,3000.0,L-L,,L,L,3.0,3.0,dishwasher,mailbox,dishwasher9,mailbox1,28.0,40.0,/static/Size_judgement/Stimuli/Size_stims/L/dishwasher/dishwasher2.jpg,/static/Size_judgement/Stimuli/Size_stims/L/mailbox/mailbox3.jpg,0.0,mailbox,dishwasher,L,L,3.0,3.0,mailbox1,dishwasher9,,228.027,1.027,0.0,
222,,size_choice_confirmation,,html-keyboard-response,222,326508,0.0-1.0-291.0-0.0,0,0,64747,,,,,,72.0,,,,,,,,,,,,,,,,,,,,,,,,,,,,228.5,0.473,,
223,,iti,,html-keyboard-response,223,329517,0.0-1.0-292.0,0,0,64747,,,,,,,,,,,,,,,,,,,,,,,,,,,,,,,,,,231.5,3.0,,
224,,size_choice,,html-keyboard-response,224,330190,0.0-1.0-294.0,0,0,64747,,669.0,,,75.0,73.0,73.0,2.0,1000.0,S-XL,0.0,S,XL,1.0,4.0,thread,crane,thread10,crane1,149.0,160.0,/static/Size_judgement/Stimuli/Size_stims/S/thread/thread9.jpg,/static/Size_judgement/Stimuli/Size_stims/XL/crane/crane7.jpg,0.0,crane,thread,XL,S,4.0,1.0,crane1,thread10,1.0,232.169,0.669,0.0,
225,,size_choice_confirmation,,html-keyboard-response,225,331028,0.0-1.0-295.0-0.0,0,0,64747,,,,,,73.0,,,,,,,,,,,,,,,,,,,,,,,,,,,,233.0,0.831,,
226,,iti,,html-keyboard-response,226,332035,0.0-1.0-296.0,0,0,64747,,,,,,,,,,,,,,,,,,,,,,,,,,,,,,,,,,234.0,1.0,,
227,,size_choice,,html-keyboard-response,227,333253,0.0-1.0-298.0,0,0,64747,,1214.0,,,68.0,74.0,74.0,2.0,3000.0,M-M,,M,M,2.0,2.0,coffeemaker,handsaw,coffeemaker4,handsaw9,63.0,88.0,/static/Size_judgement/Stimuli/Size_stims/M/coffeemaker/coffeemaker11.jpg,/static/Size_judgement/Stimuli/Size_stims/M/handsaw/handsaw6.jpg,1.0,coffeemaker,handsaw,M,M,2.0,2.0,coffeemaker4,handsaw9,,235.214,1.214,0.0,
228,,size_choice_confirmation,,html-keyboard-response,228,333543,0.0-1.0-299.0-0.0,0,0,64747,,,,,,74.0,,,,,,,,,,,,,,,,,,,,,,,,,,,,235.5,0.286,,
229,,iti,,html-keyboard-response,229,336554,0.0-1.0-300.0,0,0,64747,,,,,,,,,,,,,,,,,,,,,,,,,,,,,,,,,,238.5,3.0,,
230,,size_choice,,html-keyboard-response,230,337433,0.0-1.0-302.0,0,0,64747,,876.0,,,68.0,75.0,75.0,2.0,1000.0,S-L,1.0,L,S,3.0,1.0,mailbox,teabag,mailbox8,teabag6,47.0,135.0,/static/Size_judgement/Stimuli/Size_stims/L/mailbox/mailbox10.jpg,/static/Size_judgement/Stimuli/Size_stims/S/teabag/teabag6.jpg,1.0,mailbox,teabag,L,S,3.0,1.0,mailbox8,teabag6,1.0,239.376,0.876,0.0,
231,,size_choice_confirmation,,html-keyboard-response,231,338068,0.0-1.0-303.0-0.0,0,0,64747,,,,,,75.0,,,,,,,,,,,,,,,,,,,,,,,,,,,,240.0,0.624,,
232,,iti,,html-keyboard-response,232,339082,0.0-1.0-304.0,0,0,64747,,,,,,,,,,,,,,,,,,,,,,,,,,,,,,,,,,241.0,1.0,,
233,,size_choice,,html-keyboard-response,233,339790,0.0-1.0-306.0,0,0,64747,,703.0,,,68.0,76.0,76.0,2.0,2000.0,M-XL,1.0,XL,M,4.0,2.0,car,ketchup,car9,ketchup3,158.0,92.0,/static/Size_judgement/Stimuli/Size_stims/XL/car/car15.jpg,/static/Size_judgement/Stimuli/Size_stims/M/ketchup/ketchup10.jpg,1.0,car,ketchup,XL,M,4.0,2.0,car9,ketchup3,1.0,241.703,0.703,0.0,
234,,size_choice_confirmation,,html-keyboard-response,234,340600,0.0-1.0-307.0-0.0,0,0,64747,,,,,,76.0,,,,,,,,,,,,,,,,,,,,,,,,,,,,242.5,0.797,,
235,,iti,,html-keyboard-response,235,342609,0.0-1.0-308.0,0,0,64747,,,,,,,,,,,,,,,,,,,,,,,,,,,,,,,,,,244.5,2.0,,
236,,size_choice,,html-keyboard-response,236,343348,0.0-1.0-310.0,0,0,64747,,734.0,,,75.0,77.0,77.0,2.0,1000.0,M-XL,0.0,M,XL,2.0,4.0,basketball,dumptruck,basketball7,dumptruck6,56.0,175.0,/static/Size_judgement/Stimuli/Size_stims/M/basketball/basketball6.jpg,/static/Size_judgement/Stimuli/Size_stims/XL/dumptruck/dumptruck2.jpg,0.0,dumptruck,basketball,XL,M,4.0,2.0,dumptruck6,basketball7,1.0,245.234,0.734,0.0,
237,,size_choice_confirmation,,html-keyboard-response,237,344123,0.0-1.0-311.0-0.0,0,0,64747,,,,,,77.0,,,,,,,,,,,,,,,,,,,,,,,,,,,,246.0,0.766,,
238,,iti,,html-keyboard-response,238,345132,0.0-1.0-312.0,0,0,64747,,,,,,,,,,,,,,,,,,,,,,,,,,,,,,,,,,247.0,1.0,,
239,,size_choice,,html-keyboard-response,239,345753,0.0-1.0-314.0,0,0,64747,,617.0,,,68.0,78.0,78.0,2.0,1500.0,S-XL,1.0,XL,S,4.0,1.0,crane,teabag,crane3,teabag5,162.0,134.0,/static/Size_judgement/Stimuli/Size_stims/XL/crane/crane4.jpg,/static/Size_judgement/Stimuli/Size_stims/S/teabag/teabag2.jpg,1.0,crane,teabag,XL,S,4.0,1.0,crane3,teabag5,1.0,247.617,0.617,0.0,
240,,size_choice_confirmation,,html-keyboard-response,240,346641,0.0-1.0-315.0-0.0,0,0,64747,,,,,,78.0,,,,,,,,,,,,,,,,,,,,,,,,,,,,248.5,0.883,,
241,,iti,,html-keyboard-response,241,348147,0.0-1.0-316.0,0,0,64747,,,,,,,,,,,,,,,,,,,,,,,,,,,,,,,,,,250.0,1.5,,
242,,size_choice,,html-keyboard-response,242,348796,0.0-1.0-318.0,0,0,64747,,644.0,,,75.0,79.0,79.0,2.0,1500.0,M-XL,0.0,M,XL,2.0,4.0,handsaw,car,handsaw2,car2,81.0,151.0,/static/Size_judgement/Stimuli/Size_stims/M/handsaw/handsaw9.jpg,/static/Size_judgement/Stimuli/Size_stims/XL/car/car3.jpg,0.0,car,handsaw,XL,M,4.0,2.0,car2,handsaw2,1.0,250.644,0.644,0.0,
243,,size_choice_confirmation,,html-keyboard-response,243,349670,0.0-1.0-319.0-0.0,0,0,64747,,,,,,79.0,,,,,,,,,,,,,,,,,,,,,,,,,,,,251.5,0.856,,
244,,iti,,html-keyboard-response,244,351178,0.0-1.0-320.0,0,0,64747,,,,,,,,,,,,,,,,,,,,,,,,,,,,,,,,,,253.0,1.5,,
245,,size_choice,,html-keyboard-response,245,351841,0.0-1.0-322.0,0,0,64747,,659.0,,,75.0,80.0,80.0,2.0,2000.0,S-M,0.0,S,M,1.0,2.0,screws,handsaw,screws6,handsaw10,125.0,89.0,/static/Size_judgement/Stimuli/Size_stims/S/screws/screws3.jpg,/static/Size_judgement/Stimuli/Size_stims/M/handsaw/handsaw10.jpg,0.0,handsaw,screws,M,S,2.0,1.0,handsaw10,screws6,1.0,253.659,0.659,0.0,
246,,size_choice_confirmation,,html-keyboard-response,246,352690,0.0-1.0-323.0-0.0,0,0,64747,,,,,,80.0,,,,,,,,,,,,,,,,,,,,,,,,,,,,254.5,0.841,,
247,,iti,,html-keyboard-response,247,354699,0.0-1.0-324.0,0,0,64747,,,,,,,,,,,,,,,,,,,,,,,,,,,,,,,,,,256.5,2.0,,
248,,size_choice,,html-keyboard-response,248,355307,0.0-1.0-326.0,0,0,64747,,604.0,,,75.0,81.0,81.0,2.0,2000.0,L-L,,L,L,3.0,3.0,cooler,dishwasher,cooler2,dishwasher1,1.0,20.0,/static/Size_judgement/Stimuli/Size_stims/L/cooler/cooler9.jpg,/static/Size_judgement/Stimuli/Size_stims/L/dishwasher/dishwasher10.jpg,0.0,dishwasher,cooler,L,L,3.0,3.0,dishwasher1,cooler2,,257.104,0.604,0.0,
249,,size_choice_confirmation,,html-keyboard-response,249,356216,0.0-1.0-327.0-0.0,0,0,64747,,,,,,81.0,,,,,,,,,,,,,,,,,,,,,,,,,,,,258.0,0.896,,
250,,iti,,html-keyboard-response,250,358220,0.0-1.0-328.0,0,0,64747,,,,,,,,,,,,,,,,,,,,,,,,,,,,,,,,,,260.0,2.0,,
251,,size_choice,,html-keyboard-response,251,358911,0.0-1.0-330.0,0,0,64747,,686.0,,,75.0,82.0,82.0,2.0,1000.0,M-L,0.0,M,L,2.0,3.0,ketchup,deskchair,ketchup4,deskchair9,93.0,18.0,/static/Size_judgement/Stimuli/Size_stims/M/ketchup/ketchup2.jpg,/static/Size_judgement/Stimuli/Size_stims/L/deskchair/deskchair3.jpg,0.0,deskchair,ketchup,L,M,3.0,2.0,deskchair9,ketchup4,1.0,260.686,0.686,0.0,
252,,size_choice_confirmation,,html-keyboard-response,252,359744,0.0-1.0-331.0-0.0,0,0,64747,,,,,,82.0,,,,,,,,,,,,,,,,,,,,,,,,,,,,261.5,0.814,,
253,,iti,,html-keyboard-response,253,360755,0.0-1.0-332.0,0,0,64747,,,,,,,,,,,,,,,,,,,,,,,,,,,,,,,,,,262.5,1.0,,
254,,size_choice,,html-keyboard-response,254,361379,0.0-1.0-334.0,0,0,64747,,620.0,,,75.0,83.0,83.0,2.0,3000.0,S-S,,S,S,1.0,1.0,screws,teabag,screws10,teabag9,129.0,138.0,/static/Size_judgement/Stimuli/Size_stims/S/screws/screws9.jpg,/static/Size_judgement/Stimuli/Size_stims/S/teabag/teabag5.jpg,0.0,teabag,screws,S,S,1.0,1.0,teabag9,screws10,,263.12,0.62,0.0,
255,,size_choice_confirmation,,html-keyboard-response,255,362266,0.0-1.0-335.0-0.0,0,0,64747,,,,,,83.0,,,,,,,,,,,,,,,,,,,,,,,,,,,,264.0,0.88,,
256,,iti,,html-keyboard-response,256,365272,0.0-1.0-336.0,0,0,64747,,,,,,,,,,,,,,,,,,,,,,,,,,,,,,,,,,267.0,3.0,,
257,,size_choice,,html-keyboard-response,257,366779,0.0-1.0-338.0,0,0,64747,,,,,,84.0,84.0,2.0,1500.0,S-M,1.0,M,S,2.0,1.0,handsaw,paperclip,handsaw6,paperclip10,85.0,119.0,/static/Size_judgement/Stimuli/Size_stims/M/handsaw/handsaw4.jpg,/static/Size_judgement/Stimuli/Size_stims/S/paperclip/paperclip10.jpg,,,,,,,,,,,268.5,1.5,1.0,
258,,iti,,html-keyboard-response,258,368288,0.0-1.0-340.0,0,0,64747,,,,,,,,,,,,,,,,,,,,,,,,,,,,,,,,,,270.0,1.5,,
259,,size_choice,,html-keyboard-response,259,369099,0.0-1.0-342.0,0,0,64747,,808.0,,,68.0,85.0,85.0,2.0,1000.0,S-XL,1.0,XL,S,4.0,1.0,car,teabag,car5,teabag1,154.0,130.0,/static/Size_judgement/Stimuli/Size_stims/XL/car/car11.jpg,/static/Size_judgement/Stimuli/Size_stims/S/teabag/teabag9.jpg,1.0,car,teabag,XL,S,4.0,1.0,car5,teabag1,1.0,270.808,0.808,0.0,
260,,size_choice_confirmation,,html-keyboard-response,260,369803,0.0-1.0-343.0-0.0,0,0,64747,,,,,,85.0,,,,,,,,,,,,,,,,,,,,,,,,,,,,271.5,0.692,,
261,,iti,,html-keyboard-response,261,370807,0.0-1.0-344.0,0,0,64747,,,,,,,,,,,,,,,,,,,,,,,,,,,,,,,,,,272.5,1.0,,
262,,size_choice,,html-keyboard-response,262,371612,0.0-1.0-346.0,0,0,64747,,800.0,,,75.0,86.0,86.0,2.0,1500.0,M-L,0.0,M,L,2.0,3.0,hairdryer,dishwasher,hairdryer10,dishwasher8,79.0,27.0,/static/Size_judgement/Stimuli/Size_stims/M/hairdryer/hairdryer6.jpg,/static/Size_judgement/Stimuli/Size_stims/L/dishwasher/dishwasher3.jpg,0.0,dishwasher,hairdryer,L,M,3.0,2.0,dishwasher8,hairdryer10,1.0,273.3,0.8,0.0,
263,,size_choice_confirmation,,html-keyboard-response,263,372326,0.0-1.0-347.0-0.0,0,0,64747,,,,,,86.0,,,,,,,,,,,,,,,,,,,,,,,,,,,,274.0,0.7,,
264,,iti,,html-keyboard-response,264,373830,0.0-1.0-348.0,0,0,64747,,,,,,,,,,,,,,,,,,,,,,,,,,,,,,,,,,275.5,1.5,,
265,,size_choice,,html-keyboard-response,265,374754,0.0-1.0-350.0,0,0,64747,,920.0,,,68.0,87.0,87.0,2.0,1000.0,L-XL,1.0,XL,L,4.0,3.0,van,deskchair,van2,deskchair4,191.0,13.0,/static/Size_judgement/Stimuli/Size_stims/XL/van/van4.jpg,/static/Size_judgement/Stimuli/Size_stims/L/deskchair/deskchair6.jpg,1.0,van,deskchair,XL,L,4.0,3.0,van2,deskchair4,1.0,276.42,0.92,0.0,
266,,size_choice_confirmation,,html-keyboard-response,266,375349,0.0-1.0-351.0-0.0,0,0,64747,,,,,,87.0,,,,,,,,,,,,,,,,,,,,,,,,,,,,277.0,0.58,,
267,,iti,,html-keyboard-response,267,376353,0.0-1.0-352.0,0,0,64747,,,,,,,,,,,,,,,,,,,,,,,,,,,,,,,,,,278.0,1.0,,
268,,size_choice,,html-keyboard-response,268,377633,0.0-1.0-354.0,0,0,64747,,1275.0,,,68.0,88.0,88.0,2.0,1500.0,S-L,1.0,L,S,3.0,1.0,dishwasher,teabag,dishwasher5,teabag7,24.0,136.0,/static/Size_judgement/Stimuli/Size_stims/L/dishwasher/dishwasher4.jpg,/static/Size_judgement/Stimuli/Size_stims/S/teabag/teabag10.jpg,1.0,dishwasher,teabag,L,S,3.0,1.0,dishwasher5,teabag7,1.0,279.275,1.275,0.0,
269,,size_choice_confirmation,,html-keyboard-response,269,377868,0.0-1.0-355.0-0.0,0,0,64747,,,,,,88.0,,,,,,,,,,,,,,,,,,,,,,,,,,,,279.5,0.225,,
270,,iti,,html-keyboard-response,270,379374,0.0-1.0-356.0,0,0,64747,,,,,,,,,,,,,,,,,,,,,,,,,,,,,,,,,,281.0,1.5,,
271,,size_choice,,html-keyboard-response,271,380361,0.0-1.0-358.0,0,0,64747,,983.0,,,68.0,89.0,89.0,2.0,1500.0,M-L,0.0,M,L,2.0,3.0,hairdryer,garbagecan,hairdryer7,garbagecan4,76.0,33.0,/static/Size_judgement/Stimuli/Size_stims/M/hairdryer/hairdryer3.jpg,/static/Size_judgement/Stimuli/Size_stims/L/garbagecan/garbagecan6.jpg,1.0,hairdryer,garbagecan,M,L,2.0,3.0,hairdryer7,garbagecan4,0.0,281.983,0.983,0.0,
272,,size_choice_confirmation,,html-keyboard-response,272,380897,0.0-1.0-359.0-0.0,0,0,64747,,,,,,89.0,,,,,,,,,,,,,,,,,,,,,,,,,,,,282.5,0.517,,
273,,iti,,html-keyboard-response,273,382406,0.0-1.0-360.0,0,0,64747,,,,,,,,,,,,,,,,,,,,,,,,,,,,,,,,,,284.0,1.5,,0.94
274,,size_final_tally,,html-keyboard-response,274,384904,0.0-2.0,0,0,64747,,2493.0,,,68.0,,,,,,,,,,,,,,,,,,,,,,,,,,,,,,,,
275,,debreif_intro,,html-keyboard-response,275,388858,0.0-3.0,0,0,64747,,3904.0,,,68.0,,,,,,,,,,,,,,,,,,,,,,,,,,,,,,,,
276,,debreif_age,,survey-text,276,394329,0.0-4.0,0,0,64747,,5467.0,"{""Q0"":""29""}",,,,,,,,,,,,,,,,,,,,,,,,,,,,,,,,,,
277,,debreif_gender,,survey-multi-choice,277,396425,0.0-5.0,0,0,64747,,2087.0,"{""Q0"":""Female""}",,,,,,,,,,,,,,,,,,,,,,,,,,,,,,,,,,
278,,debreif_dominant_hand,,survey-multi-choice,278,398837,0.0-6.0,0,0,64747,,2404.0,"{""Q0"":""Right""}",,,,,,,,,,,,,,,,,,,,,,,,,,,,,,,,,,
279,,debreif_native_language,,survey-multi-choice,279,400828,0.0-7.0,0,0,64747,,1983.0,"{""Q0"":""Yes""}",,,,,,,,,,,,,,,,,,,,,,,,,,,,,,,,,,
280,,debreif_fluency,,survey-likert,280,403539,0.0-8.0,0,0,64747,,2702.0,"{""Q0"":5}",,,,,,,,,,,,,,,,,,,,,,,,,,,,,,,,,,
281,,debreif_strategy_category_learning,,survey-text,281,425392,0.0-9.0,0,0,64747,,21848.0,"{""Q0"":""I just tried to remember which ones were worth more""}",,,,,,,,,,,,,,,,,,,,,,,,,,,,,,,,,,
282,,debreif_strategy_old_trials,,survey-text,282,447949,0.0-10.0,0,0,64747,,22554.0,"{""Q0"":""I tried to remember which one I remembered having the higher reward""}",,,,,,,,,,,,,,,,,,,,,,,,,,,,,,,,,,
283,,debreif_strategy_category_memory,,survey-text,283,466560,0.0-11.0,0,0,64747,,18609.0,"{""Q0"":""I tried to estimate based on my memory of the objects""}",,,,,,,,,,,,,,,,,,,,,,,,,,,,,,,,,,
284,,debreif_strategy_size,,survey-text,284,480719,0.0-12.0,0,0,64747,,14157.0,"{""Q0"":""I tried to imagine them in real life""}",,,,,,,,,,,,,,,,,,,,,,,,,,,,,,,,,,
285,,debreif_strategy_rl,,survey-text,285,494830,0.0-13.0,0,0,64747,,14109.0,"{""Q0"":""The one that was clearly worth more every time""}",,,,,,,,,,,,,,,,,,,,,,,,,,,,,,,,,,
286,,debreif_clear_instructions,,survey-text,286,501072,0.0-14.0,0,0,64747,,6238.0,"{""Q0"":""nothing!""}",,,,,,,,,,,,,,,,,,,,,,,,,,,,,,,,,,
287,,debreif_end,,html-keyboard-response,287,523250,0.0-15.0,0,0,64747,,22171.0,,,32.0,,,,,,,,,,,,,,,,,,,,,,,,,,,,,,,,
