,success,ttype,start_time,trial_type,trial_index,time_elapsed,internal_node_id,warning,missed_checkup,PID,view_history,rt,responses,repeat_instructions,key_press,index,trial_num,block,iti,pair_type,high_size_on_left,left_size_group,right_size_group,left_size_num,right_size_num,left_category,right_category,left_exemplar,right_exemplar,left_index,right_index,left_img_path,right_img_path,accuracy,onset,duration,no_response,left_chosen,chosen_category,unchosen_category,chosen_size_group,unchosen_size_group,chosen_size_num,unchosen_size_num,chosen_exemplar,unchosen_exemplar,size_final_tally
0,True,full_screen,d06032022hr1606,fullscreen,0,4217,0.0-0.0,0,0,59346,,,,,,,,,,,,,,,,,,,,,,,,,,,,,,,,,,,,,
1,,size_instructions,,instructions,1,19799,0.0-1.0-0.0-0.0,0,0,59346,"[{""page_index"":0,""viewing_time"":3323},{""page_index"":1,""viewing_time"":3574},{""page_index"":2,""viewing_time"":3383},{""page_index"":3,""viewing_time"":2669},{""page_index"":4,""viewing_time"":1640},{""page_index"":5,""viewing_time"":989}]",15580.0,,,,,,,,,,,,,,,,,,,,,,,,,,,,,,,,,,,
2,,size_comprehension_check,,survey-multi-choice,2,46103,0.0-1.0-0.0-1.0,0,0,59346,,26293.0,"{""Q0"":""True"",""Q1"":""Size on the screen"",""Q2"":""True"",""Q3"":""D for left and K for right""}",1.0,,,,,,,,,,,,,,,,,,,,,,,,,,,,,,,,,
3,,missed_instruction_checkup,,html-keyboard-response,3,48379,0.0-1.0-0.0-2.0-0.0,0,1,59346,,2261.0,,,68.0,,,,,,,,,,,,,,,,,,,,,,,,,,,,,,,,
4,,size_instructions,,instructions,4,74584,0.0-1.0-0.1-0.1,0,0,59346,"[{""page_index"":0,""viewing_time"":2987},{""page_index"":1,""viewing_time"":7841},{""page_index"":2,""viewing_time"":3529},{""page_index"":3,""viewing_time"":3115},{""page_index"":4,""viewing_time"":6413},{""page_index"":5,""viewing_time"":2317}]",26203.0,,,,,,,,,,,,,,,,,,,,,,,,,,,,,,,,,,,
5,,size_comprehension_check,,survey-multi-choice,5,88341,0.0-1.0-0.1-1.1,0,0,59346,,13742.0,"{""Q0"":""True"",""Q1"":""Size in the real world"",""Q2"":""True"",""Q3"":""D for left and K for right""}",0.0,,,,,,,,,,,,,,,,,,,,,,,,,,,,,,,,,
6,,,,html-keyboard-response,6,90031,0.0-1.0-1.0,0,0,59346,,1680.0,,,68.0,,,,,,,,,,,,,,,,,,,,,,,,,,,,,,,,
7,,size_choice,,html-keyboard-response,7,91535,0.0-1.0-2.0,0,0,59346,,,,,,0.0,0.0,1.0,1000.0,L-L,,L,L,3.0,3.0,dishwasher,garbagecan,dishwasher9,garbagecan9,28.0,38.0,/static/Size_judgement/Stimuli/Size_stims/L/dishwasher/dishwasher2.jpg,/static/Size_judgement/Stimuli/Size_stims/L/garbagecan/garbagecan12.jpg,,1.5,1.5,1.0,,,,,,,,,,
8,,iti,,html-keyboard-response,8,92539,0.0-1.0-4.0,0,0,59346,,,,,,,,,,,,,,,,,,,,,,,,,2.5,1.0,,,,,,,,,,,
9,,size_choice,,html-keyboard-response,9,93671,0.0-1.0-6.0,0,0,59346,,1129.0,,,75.0,1.0,1.0,1.0,1000.0,M-M,,M,M,2.0,2.0,handsaw,hairdryer,handsaw1,hairdryer2,80.0,71.0,/static/Size_judgement/Stimuli/Size_stims/M/handsaw/handsaw8.jpg,/static/Size_judgement/Stimuli/Size_stims/M/hairdryer/hairdryer12.jpg,,3.629,1.129,0.0,0.0,hairdryer,handsaw,M,M,2.0,2.0,hairdryer2,handsaw1,
10,,size_choice_confirmation,,html-keyboard-response,10,94046,0.0-1.0-7.0-0.0,0,0,59346,,,,,,1.0,,,,,,,,,,,,,,,,,,,4.0,0.371,,,,,,,,,,,
11,,iti,,html-keyboard-response,11,95049,0.0-1.0-8.0,0,0,59346,,,,,,,,,,,,,,,,,,,,,,,,,5.0,1.0,,,,,,,,,,,
12,,size_choice,,html-keyboard-response,12,95899,0.0-1.0-10.0,0,0,59346,,849.0,,,75.0,2.0,2.0,1.0,1500.0,S-XL,0.0,S,XL,1.0,4.0,teabag,dumptruck,teabag7,dumptruck8,136.0,177.0,/static/Size_judgement/Stimuli/Size_stims/S/teabag/teabag10.jpg,/static/Size_judgement/Stimuli/Size_stims/XL/dumptruck/dumptruck7.jpg,1.0,5.849,0.849,0.0,0.0,dumptruck,teabag,XL,S,4.0,1.0,dumptruck8,teabag7,
13,,size_choice_confirmation,,html-keyboard-response,13,96553,0.0-1.0-11.0-0.0,0,0,59346,,,,,,2.0,,,,,,,,,,,,,,,,,,,6.5,0.651,,,,,,,,,,,
14,,iti,,html-keyboard-response,14,98056,0.0-1.0-12.0,0,0,59346,,,,,,,,,,,,,,,,,,,,,,,,,8.0,1.5,,,,,,,,,,,
15,,size_choice,,html-keyboard-response,15,99044,0.0-1.0-14.0,0,0,59346,,985.0,,,68.0,3.0,3.0,1.0,2000.0,S-M,1.0,M,S,2.0,1.0,hairdryer,screws,hairdryer5,screws5,74.0,124.0,/static/Size_judgement/Stimuli/Size_stims/M/hairdryer/hairdryer15.jpg,/static/Size_judgement/Stimuli/Size_stims/S/screws/screws2.jpg,1.0,8.985,0.985,0.0,1.0,hairdryer,screws,M,S,2.0,1.0,hairdryer5,screws5,
16,,size_choice_confirmation,,html-keyboard-response,16,99564,0.0-1.0-15.0-0.0,0,0,59346,,,,,,3.0,,,,,,,,,,,,,,,,,,,9.5,0.515,,,,,,,,,,,
17,,iti,,html-keyboard-response,17,101567,0.0-1.0-16.0,0,0,59346,,,,,,,,,,,,,,,,,,,,,,,,,11.5,2.0,,,,,,,,,,,
18,,size_choice,,html-keyboard-response,18,102239,0.0-1.0-18.0,0,0,59346,,669.0,,,75.0,4.0,4.0,1.0,3500.0,S-XL,0.0,S,XL,1.0,4.0,teabag,car,teabag4,car9,133.0,158.0,/static/Size_judgement/Stimuli/Size_stims/S/teabag/teabag3.jpg,/static/Size_judgement/Stimuli/Size_stims/XL/car/car15.jpg,1.0,12.169,0.669,0.0,0.0,car,teabag,XL,S,4.0,1.0,car9,teabag4,
19,,size_choice_confirmation,,html-keyboard-response,19,103074,0.0-1.0-19.0-0.0,0,0,59346,,,,,,4.0,,,,,,,,,,,,,,,,,,,13.0,0.831,,,,,,,,,,,
20,,iti,,html-keyboard-response,20,106576,0.0-1.0-20.0,0,0,59346,,,,,,,,,,,,,,,,,,,,,,,,,16.5,3.5,,,,,,,,,,,
21,,size_choice,,html-keyboard-response,21,107422,0.0-1.0-22.0,0,0,59346,,844.0,,,68.0,5.0,5.0,1.0,1500.0,M-L,1.0,L,M,3.0,2.0,cooler,handsaw,cooler10,handsaw7,9.0,86.0,/static/Size_judgement/Stimuli/Size_stims/L/cooler/cooler6.jpg,/static/Size_judgement/Stimuli/Size_stims/M/handsaw/handsaw5.jpg,1.0,17.344,0.844,0.0,1.0,cooler,handsaw,L,M,3.0,2.0,cooler10,handsaw7,
22,,size_choice_confirmation,,html-keyboard-response,22,108081,0.0-1.0-23.0-0.0,0,0,59346,,,,,,5.0,,,,,,,,,,,,,,,,,,,18.0,0.656,,,,,,,,,,,
23,,iti,,html-keyboard-response,23,109584,0.0-1.0-24.0,0,0,59346,,,,,,,,,,,,,,,,,,,,,,,,,19.5,1.5,,,,,,,,,,,
24,,size_choice,,html-keyboard-response,24,110251,0.0-1.0-26.0,0,0,59346,,664.0,,,75.0,6.0,6.0,1.0,2000.0,M-XL,0.0,M,XL,2.0,4.0,basketball,crane,basketball10,crane9,59.0,168.0,/static/Size_judgement/Stimuli/Size_stims/M/basketball/basketball4.jpg,/static/Size_judgement/Stimuli/Size_stims/XL/crane/crane8.jpg,1.0,20.164,0.664,0.0,0.0,crane,basketball,XL,M,4.0,2.0,crane9,basketball10,
25,,size_choice_confirmation,,html-keyboard-response,25,111090,0.0-1.0-27.0-0.0,0,0,59346,,,,,,6.0,,,,,,,,,,,,,,,,,,,21.0,0.836,,,,,,,,,,,
26,,iti,,html-keyboard-response,26,113092,0.0-1.0-28.0,0,0,59346,,,,,,,,,,,,,,,,,,,,,,,,,23.0,2.0,,,,,,,,,,,
27,,size_choice,,html-keyboard-response,27,113985,0.0-1.0-30.0,0,0,59346,,890.0,,,75.0,7.0,7.0,1.0,3000.0,M-XL,0.0,M,XL,2.0,4.0,hairdryer,dumptruck,hairdryer7,dumptruck6,76.0,175.0,/static/Size_judgement/Stimuli/Size_stims/M/hairdryer/hairdryer3.jpg,/static/Size_judgement/Stimuli/Size_stims/XL/dumptruck/dumptruck2.jpg,1.0,23.89,0.89,0.0,0.0,dumptruck,hairdryer,XL,M,4.0,2.0,dumptruck6,hairdryer7,
28,,size_choice_confirmation,,html-keyboard-response,28,114599,0.0-1.0-31.0-0.0,0,0,59346,,,,,,7.0,,,,,,,,,,,,,,,,,,,24.5,0.61,,,,,,,,,,,
29,,iti,,html-keyboard-response,29,117601,0.0-1.0-32.0,0,0,59346,,,,,,,,,,,,,,,,,,,,,,,,,27.5,3.0,,,,,,,,,,,
30,,size_choice,,html-keyboard-response,30,118659,0.0-1.0-34.0,0,0,59346,,1054.0,,,75.0,8.0,8.0,1.0,2000.0,XL-XL,,XL,XL,4.0,4.0,van,crane,van2,crane8,191.0,167.0,/static/Size_judgement/Stimuli/Size_stims/XL/van/van4.jpg,/static/Size_judgement/Stimuli/Size_stims/XL/crane/crane10.jpg,,28.554,1.054,0.0,0.0,crane,van,XL,XL,4.0,4.0,crane8,van2,
31,,size_choice_confirmation,,html-keyboard-response,31,119108,0.0-1.0-35.0-0.0,0,0,59346,,,,,,8.0,,,,,,,,,,,,,,,,,,,29.0,0.446,,,,,,,,,,,
32,,iti,,html-keyboard-response,32,121112,0.0-1.0-36.0,0,0,59346,,,,,,,,,,,,,,,,,,,,,,,,,31.0,2.0,,,,,,,,,,,
33,,size_choice,,html-keyboard-response,33,122049,0.0-1.0-38.0,0,0,59346,,935.0,,,68.0,9.0,9.0,1.0,2000.0,L-L,,L,L,3.0,3.0,dishwasher,cooler,dishwasher7,cooler8,26.0,7.0,/static/Size_judgement/Stimuli/Size_stims/L/dishwasher/dishwasher7.jpg,/static/Size_judgement/Stimuli/Size_stims/L/cooler/cooler5.jpg,,31.935,0.935,0.0,1.0,dishwasher,cooler,L,L,3.0,3.0,dishwasher7,cooler8,
34,,size_choice_confirmation,,html-keyboard-response,34,122619,0.0-1.0-39.0-0.0,0,0,59346,,,,,,9.0,,,,,,,,,,,,,,,,,,,32.5,0.565,,,,,,,,,,,
35,,iti,,html-keyboard-response,35,124622,0.0-1.0-40.0,0,0,59346,,,,,,,,,,,,,,,,,,,,,,,,,34.5,2.0,,,,,,,,,,,
36,,size_choice,,html-keyboard-response,36,125287,0.0-1.0-42.0,0,0,59346,,663.0,,,68.0,10.0,10.0,1.0,1000.0,M-L,1.0,L,M,3.0,2.0,garbagecan,basketball,garbagecan4,basketball4,33.0,53.0,/static/Size_judgement/Stimuli/Size_stims/L/garbagecan/garbagecan6.jpg,/static/Size_judgement/Stimuli/Size_stims/M/basketball/basketball1.jpg,1.0,35.163,0.663,0.0,1.0,garbagecan,basketball,L,M,3.0,2.0,garbagecan4,basketball4,
37,,size_choice_confirmation,,html-keyboard-response,37,126128,0.0-1.0-43.0-0.0,0,0,59346,,,,,,10.0,,,,,,,,,,,,,,,,,,,36.0,0.837,,,,,,,,,,,
38,,iti,,html-keyboard-response,38,127130,0.0-1.0-44.0,0,0,59346,,,,,,,,,,,,,,,,,,,,,,,,,37.0,1.0,,,,,,,,,,,
39,,size_choice,,html-keyboard-response,39,127847,0.0-1.0-46.0,0,0,59346,,715.0,,,68.0,11.0,11.0,1.0,1000.0,S-L,1.0,L,S,3.0,1.0,dishwasher,screws,dishwasher8,screws8,27.0,127.0,/static/Size_judgement/Stimuli/Size_stims/L/dishwasher/dishwasher3.jpg,/static/Size_judgement/Stimuli/Size_stims/S/screws/screws10.jpg,1.0,37.715,0.715,0.0,1.0,dishwasher,screws,L,S,3.0,1.0,dishwasher8,screws8,
40,,size_choice_confirmation,,html-keyboard-response,40,128636,0.0-1.0-47.0-0.0,0,0,59346,,,,,,11.0,,,,,,,,,,,,,,,,,,,38.5,0.785,,,,,,,,,,,
41,,iti,,html-keyboard-response,41,129640,0.0-1.0-48.0,0,0,59346,,,,,,,,,,,,,,,,,,,,,,,,,39.5,1.0,,,,,,,,,,,
42,,size_choice,,html-keyboard-response,42,130314,0.0-1.0-50.0,0,0,59346,,670.0,,,68.0,12.0,12.0,1.0,1000.0,L-XL,1.0,XL,L,4.0,3.0,tractor,deskchair,tractor6,deskchair5,185.0,14.0,/static/Size_judgement/Stimuli/Size_stims/XL/tractor/tractor3.jpg,/static/Size_judgement/Stimuli/Size_stims/L/deskchair/deskchair7.jpg,1.0,40.17,0.67,0.0,1.0,tractor,deskchair,XL,L,4.0,3.0,tractor6,deskchair5,
43,,size_choice_confirmation,,html-keyboard-response,43,131148,0.0-1.0-51.0-0.0,0,0,59346,,,,,,12.0,,,,,,,,,,,,,,,,,,,41.0,0.83,,,,,,,,,,,
44,,iti,,html-keyboard-response,44,132151,0.0-1.0-52.0,0,0,59346,,,,,,,,,,,,,,,,,,,,,,,,,42.0,1.0,,,,,,,,,,,
45,,size_choice,,html-keyboard-response,45,132908,0.0-1.0-54.0,0,0,59346,,754.0,,,75.0,13.0,13.0,1.0,1000.0,S-S,,S,S,1.0,1.0,thread,die,thread10,die1,149.0,100.0,/static/Size_judgement/Stimuli/Size_stims/S/thread/thread9.jpg,/static/Size_judgement/Stimuli/Size_stims/S/die/die8.jpg,,42.754,0.754,0.0,0.0,die,thread,S,S,1.0,1.0,die1,thread10,
46,,size_choice_confirmation,,html-keyboard-response,46,133659,0.0-1.0-55.0-0.0,0,0,59346,,,,,,13.0,,,,,,,,,,,,,,,,,,,43.5,0.746,,,,,,,,,,,
47,,iti,,html-keyboard-response,47,134662,0.0-1.0-56.0,0,0,59346,,,,,,,,,,,,,,,,,,,,,,,,,44.5,1.0,,,,,,,,,,,
48,,size_choice,,html-keyboard-response,48,135757,0.0-1.0-58.0,0,0,59346,,1093.0,,,75.0,14.0,14.0,1.0,1000.0,M-XL,0.0,M,XL,2.0,4.0,coffeemaker,tractor,coffeemaker4,tractor4,63.0,183.0,/static/Size_judgement/Stimuli/Size_stims/M/coffeemaker/coffeemaker11.jpg,/static/Size_judgement/Stimuli/Size_stims/XL/tractor/tractor4.jpg,1.0,45.593,1.093,0.0,0.0,tractor,coffeemaker,XL,M,4.0,2.0,tractor4,coffeemaker4,
49,,size_choice_confirmation,,html-keyboard-response,49,136166,0.0-1.0-59.0-0.0,0,0,59346,,,,,,14.0,,,,,,,,,,,,,,,,,,,46.0,0.407,,,,,,,,,,,
50,,iti,,html-keyboard-response,50,137170,0.0-1.0-60.0,0,0,59346,,,,,,,,,,,,,,,,,,,,,,,,,47.0,1.0,,,,,,,,,,,
51,,size_choice,,html-keyboard-response,51,137906,0.0-1.0-62.0,0,0,59346,,732.0,,,75.0,15.0,15.0,1.0,3500.0,M-XL,0.0,M,XL,2.0,4.0,handsaw,van,handsaw5,van10,84.0,199.0,/static/Size_judgement/Stimuli/Size_stims/M/handsaw/handsaw1.jpg,/static/Size_judgement/Stimuli/Size_stims/XL/van/van8.jpg,1.0,47.732,0.732,0.0,0.0,van,handsaw,XL,M,4.0,2.0,van10,handsaw5,
52,,size_choice_confirmation,,html-keyboard-response,52,138679,0.0-1.0-63.0-0.0,0,0,59346,,,,,,15.0,,,,,,,,,,,,,,,,,,,48.5,0.768,,,,,,,,,,,
53,,iti,,html-keyboard-response,53,142181,0.0-1.0-64.0,0,0,59346,,,,,,,,,,,,,,,,,,,,,,,,,52.0,3.5,,,,,,,,,,,
54,,size_choice,,html-keyboard-response,54,143582,0.0-1.0-66.0,0,0,59346,,1398.0,,,68.0,16.0,16.0,1.0,1500.0,XL-XL,,XL,XL,4.0,4.0,dumptruck,car,dumptruck2,car6,171.0,155.0,/static/Size_judgement/Stimuli/Size_stims/XL/dumptruck/dumptruck8.jpg,/static/Size_judgement/Stimuli/Size_stims/XL/car/car12.jpg,,53.398,1.398,0.0,1.0,dumptruck,car,XL,XL,4.0,4.0,dumptruck2,car6,
55,,size_choice_confirmation,,html-keyboard-response,55,143687,0.0-1.0-67.0-0.0,0,0,59346,,,,,,16.0,,,,,,,,,,,,,,,,,,,53.5,0.102,,,,,,,,,,,
56,,iti,,html-keyboard-response,56,145191,0.0-1.0-68.0,0,0,59346,,,,,,,,,,,,,,,,,,,,,,,,,55.0,1.5,,,,,,,,,,,
57,,size_choice,,html-keyboard-response,57,145880,0.0-1.0-70.0,0,0,59346,,687.0,,,68.0,17.0,17.0,1.0,1500.0,S-XL,1.0,XL,S,4.0,1.0,van,screws,van1,screws6,190.0,125.0,/static/Size_judgement/Stimuli/Size_stims/XL/van/van5.jpg,/static/Size_judgement/Stimuli/Size_stims/S/screws/screws3.jpg,1.0,55.687,0.687,0.0,1.0,van,screws,XL,S,4.0,1.0,van1,screws6,
58,,size_choice_confirmation,,html-keyboard-response,58,146696,0.0-1.0-71.0-0.0,0,0,59346,,,,,,17.0,,,,,,,,,,,,,,,,,,,56.5,0.813,,,,,,,,,,,
59,,iti,,html-keyboard-response,59,148199,0.0-1.0-72.0,0,0,59346,,,,,,,,,,,,,,,,,,,,,,,,,58.0,1.5,,,,,,,,,,,
60,,size_choice,,html-keyboard-response,60,148921,0.0-1.0-74.0,0,0,59346,,720.0,,,68.0,18.0,18.0,1.0,3500.0,M-XL,1.0,XL,M,4.0,2.0,car,basketball,car5,basketball8,154.0,57.0,/static/Size_judgement/Stimuli/Size_stims/XL/car/car11.jpg,/static/Size_judgement/Stimuli/Size_stims/M/basketball/basketball7.jpg,1.0,58.72,0.72,0.0,1.0,car,basketball,XL,M,4.0,2.0,car5,basketball8,
61,,size_choice_confirmation,,html-keyboard-response,61,149704,0.0-1.0-75.0-0.0,0,0,59346,,,,,,18.0,,,,,,,,,,,,,,,,,,,59.5,0.78,,,,,,,,,,,
62,,iti,,html-keyboard-response,62,153207,0.0-1.0-76.0,0,0,59346,,,,,,,,,,,,,,,,,,,,,,,,,63.0,3.5,,,,,,,,,,,
63,,size_choice,,html-keyboard-response,63,154033,0.0-1.0-78.0,0,0,59346,,824.0,,,68.0,19.0,19.0,1.0,1500.0,S-L,1.0,L,S,3.0,1.0,cooler,thread,cooler7,thread7,6.0,146.0,/static/Size_judgement/Stimuli/Size_stims/L/cooler/cooler4.jpg,/static/Size_judgement/Stimuli/Size_stims/S/thread/thread3.jpg,1.0,63.824,0.824,0.0,1.0,cooler,thread,L,S,3.0,1.0,cooler7,thread7,
64,,size_choice_confirmation,,html-keyboard-response,64,154713,0.0-1.0-79.0-0.0,0,0,59346,,,,,,19.0,,,,,,,,,,,,,,,,,,,64.5,0.676,,,,,,,,,,,
65,,iti,,html-keyboard-response,65,156215,0.0-1.0-80.0,0,0,59346,,,,,,,,,,,,,,,,,,,,,,,,,66.0,1.5,,,,,,,,,,,
66,,size_choice,,html-keyboard-response,66,156938,0.0-1.0-82.0,0,0,59346,,722.0,,,75.0,20.0,20.0,1.0,1000.0,S-S,,S,S,1.0,1.0,paperclip,teabag,paperclip8,teabag9,117.0,138.0,/static/Size_judgement/Stimuli/Size_stims/S/paperclip/paperclip5.jpg,/static/Size_judgement/Stimuli/Size_stims/S/teabag/teabag5.jpg,,66.722,0.722,0.0,0.0,teabag,paperclip,S,S,1.0,1.0,teabag9,paperclip8,
67,,size_choice_confirmation,,html-keyboard-response,67,157721,0.0-1.0-83.0-0.0,0,0,59346,,,,,,20.0,,,,,,,,,,,,,,,,,,,67.5,0.778,,,,,,,,,,,
68,,iti,,html-keyboard-response,68,158724,0.0-1.0-84.0,0,0,59346,,,,,,,,,,,,,,,,,,,,,,,,,68.5,1.0,,,,,,,,,,,
69,,size_choice,,html-keyboard-response,69,159632,0.0-1.0-86.0,0,0,59346,,906.0,,,75.0,21.0,21.0,1.0,1000.0,S-S,,S,S,1.0,1.0,die,paperclip,die6,paperclip6,105.0,115.0,/static/Size_judgement/Stimuli/Size_stims/S/die/die1.jpg,/static/Size_judgement/Stimuli/Size_stims/S/paperclip/paperclip6.jpg,,69.406,0.906,0.0,0.0,paperclip,die,S,S,1.0,1.0,paperclip6,die6,
70,,size_choice_confirmation,,html-keyboard-response,70,160230,0.0-1.0-87.0-0.0,0,0,59346,,,,,,21.0,,,,,,,,,,,,,,,,,,,70.0,0.594,,,,,,,,,,,
71,,iti,,html-keyboard-response,71,161232,0.0-1.0-88.0,0,0,59346,,,,,,,,,,,,,,,,,,,,,,,,,71.0,1.0,,,,,,,,,,,
72,,size_choice,,html-keyboard-response,72,162677,0.0-1.0-90.0,0,0,59346,,1443.0,,,75.0,22.0,22.0,1.0,1000.0,L-XL,0.0,L,XL,3.0,4.0,dishwasher,dumptruck,dishwasher3,dumptruck3,22.0,172.0,/static/Size_judgement/Stimuli/Size_stims/L/dishwasher/dishwasher8.jpg,/static/Size_judgement/Stimuli/Size_stims/XL/dumptruck/dumptruck10.jpg,1.0,72.443,1.443,0.0,0.0,dumptruck,dishwasher,XL,L,4.0,3.0,dumptruck3,dishwasher3,
73,,size_choice_confirmation,,html-keyboard-response,73,162738,0.0-1.0-91.0-0.0,0,0,59346,,,,,,22.0,,,,,,,,,,,,,,,,,,,72.5,0.057,,,,,,,,,,,
74,,iti,,html-keyboard-response,74,163743,0.0-1.0-92.0,0,0,59346,,,,,,,,,,,,,,,,,,,,,,,,,73.5,1.0,,,,,,,,,,,
75,,size_choice,,html-keyboard-response,75,164969,0.0-1.0-94.0,0,0,59346,,1221.0,,,68.0,23.0,23.0,1.0,3000.0,M-M,,M,M,2.0,2.0,handsaw,hairdryer,handsaw8,hairdryer3,87.0,72.0,/static/Size_judgement/Stimuli/Size_stims/M/handsaw/handsaw7.jpg,/static/Size_judgement/Stimuli/Size_stims/M/hairdryer/hairdryer17.jpg,,74.721,1.221,0.0,1.0,handsaw,hairdryer,M,M,2.0,2.0,handsaw8,hairdryer3,
76,,size_choice_confirmation,,html-keyboard-response,76,165253,0.0-1.0-95.0-0.0,0,0,59346,,,,,,23.0,,,,,,,,,,,,,,,,,,,75.0,0.279,,,,,,,,,,,
77,,iti,,html-keyboard-response,77,168256,0.0-1.0-96.0,0,0,59346,,,,,,,,,,,,,,,,,,,,,,,,,78.0,3.0,,,,,,,,,,,
78,,size_choice,,html-keyboard-response,78,169146,0.0-1.0-98.0,0,0,59346,,888.0,,,68.0,24.0,24.0,1.0,1000.0,S-M,1.0,M,S,2.0,1.0,basketball,paperclip,basketball2,paperclip10,51.0,119.0,/static/Size_judgement/Stimuli/Size_stims/M/basketball/basketball8.jpg,/static/Size_judgement/Stimuli/Size_stims/S/paperclip/paperclip10.jpg,1.0,78.888,0.888,0.0,1.0,basketball,paperclip,M,S,2.0,1.0,basketball2,paperclip10,
79,,size_choice_confirmation,,html-keyboard-response,79,169762,0.0-1.0-99.0-0.0,0,0,59346,,,,,,24.0,,,,,,,,,,,,,,,,,,,79.5,0.612,,,,,,,,,,,
80,,iti,,html-keyboard-response,80,170764,0.0-1.0-100.0,0,0,59346,,,,,,,,,,,,,,,,,,,,,,,,,80.5,1.0,,,,,,,,,,,
81,,size_choice,,html-keyboard-response,81,171490,0.0-1.0-102.0,0,0,59346,,724.0,,,68.0,25.0,25.0,1.0,2000.0,S-L,1.0,L,S,3.0,1.0,dishwasher,paperclip,dishwasher10,paperclip9,29.0,118.0,/static/Size_judgement/Stimuli/Size_stims/L/dishwasher/dishwasher1.jpg,/static/Size_judgement/Stimuli/Size_stims/S/paperclip/paperclip4.jpg,1.0,81.224,0.724,0.0,1.0,dishwasher,paperclip,L,S,3.0,1.0,dishwasher10,paperclip9,
82,,size_choice_confirmation,,html-keyboard-response,82,172271,0.0-1.0-103.0-0.0,0,0,59346,,,,,,25.0,,,,,,,,,,,,,,,,,,,82.0,0.776,,,,,,,,,,,
83,,iti,,html-keyboard-response,83,174274,0.0-1.0-104.0,0,0,59346,,,,,,,,,,,,,,,,,,,,,,,,,84.0,2.0,,,,,,,,,,,
84,,size_choice,,html-keyboard-response,84,175065,0.0-1.0-106.0,0,0,59346,,789.0,,,68.0,26.0,26.0,1.0,3000.0,S-L,1.0,L,S,3.0,1.0,deskchair,thread,deskchair10,thread2,19.0,141.0,/static/Size_judgement/Stimuli/Size_stims/L/deskchair/deskchair2.jpg,/static/Size_judgement/Stimuli/Size_stims/S/thread/thread6.jpg,1.0,84.789,0.789,0.0,1.0,deskchair,thread,L,S,3.0,1.0,deskchair10,thread2,
85,,size_choice_confirmation,,html-keyboard-response,85,175780,0.0-1.0-107.0-0.0,0,0,59346,,,,,,26.0,,,,,,,,,,,,,,,,,,,85.5,0.711,,,,,,,,,,,
86,,iti,,html-keyboard-response,86,178783,0.0-1.0-108.0,0,0,59346,,,,,,,,,,,,,,,,,,,,,,,,,88.5,3.0,,,,,,,,,,,
87,,size_choice,,html-keyboard-response,87,179636,0.0-1.0-110.0,0,0,59346,,850.0,,,68.0,27.0,27.0,1.0,1000.0,L-L,,L,L,3.0,3.0,mailbox,garbagecan,mailbox5,garbagecan8,44.0,37.0,/static/Size_judgement/Stimuli/Size_stims/L/mailbox/mailbox4.jpg,/static/Size_judgement/Stimuli/Size_stims/L/garbagecan/garbagecan13.jpg,,89.35,0.85,0.0,1.0,mailbox,garbagecan,L,L,3.0,3.0,mailbox5,garbagecan8,
88,,size_choice_confirmation,,html-keyboard-response,88,180302,0.0-1.0-111.0-0.0,0,0,59346,,,,,,27.0,,,,,,,,,,,,,,,,,,,90.0,0.65,,,,,,,,,,,
89,,iti,,html-keyboard-response,89,181305,0.0-1.0-112.0,0,0,59346,,,,,,,,,,,,,,,,,,,,,,,,,91.0,1.0,,,,,,,,,,,
90,,size_choice,,html-keyboard-response,90,182400,0.0-1.0-114.0,0,0,59346,,1091.0,,,75.0,28.0,28.0,1.0,2000.0,M-L,0.0,M,L,2.0,3.0,ketchup,mailbox,ketchup2,mailbox9,91.0,48.0,/static/Size_judgement/Stimuli/Size_stims/M/ketchup/ketchup9.jpg,/static/Size_judgement/Stimuli/Size_stims/L/mailbox/mailbox9.jpg,1.0,92.091,1.091,0.0,0.0,mailbox,ketchup,L,M,3.0,2.0,mailbox9,ketchup2,
91,,size_choice_confirmation,,html-keyboard-response,91,182813,0.0-1.0-115.0-0.0,0,0,59346,,,,,,28.0,,,,,,,,,,,,,,,,,,,92.5,0.409,,,,,,,,,,,
92,,iti,,html-keyboard-response,92,184814,0.0-1.0-116.0,0,0,59346,,,,,,,,,,,,,,,,,,,,,,,,,94.5,2.0,,,,,,,,,,,
93,,size_choice,,html-keyboard-response,93,185702,0.0-1.0-118.0,0,0,59346,,886.0,,,75.0,29.0,29.0,1.0,1000.0,S-XL,0.0,S,XL,1.0,4.0,die,dumptruck,die5,dumptruck9,104.0,178.0,/static/Size_judgement/Stimuli/Size_stims/S/die/die3.jpg,/static/Size_judgement/Stimuli/Size_stims/XL/dumptruck/dumptruck5.jpg,1.0,95.386,0.886,0.0,0.0,dumptruck,die,XL,S,4.0,1.0,dumptruck9,die5,
94,,size_choice_confirmation,,html-keyboard-response,94,186321,0.0-1.0-119.0-0.0,0,0,59346,,,,,,29.0,,,,,,,,,,,,,,,,,,,96.0,0.614,,,,,,,,,,,
95,,iti,,html-keyboard-response,95,187323,0.0-1.0-120.0,0,0,59346,,,,,,,,,,,,,,,,,,,,,,,,,97.0,1.0,,,,,,,,,,,
96,,size_choice,,html-keyboard-response,96,188010,0.0-1.0-122.0,0,0,59346,,683.0,,,68.0,30.0,30.0,1.0,1000.0,S-XL,1.0,XL,S,4.0,1.0,tractor,die,tractor7,die2,186.0,101.0,/static/Size_judgement/Stimuli/Size_stims/XL/tractor/tractor2.jpg,/static/Size_judgement/Stimuli/Size_stims/S/die/die9.jpg,1.0,97.683,0.683,0.0,1.0,tractor,die,XL,S,4.0,1.0,tractor7,die2,
97,,size_choice_confirmation,,html-keyboard-response,97,188831,0.0-1.0-123.0-0.0,0,0,59346,,,,,,30.0,,,,,,,,,,,,,,,,,,,98.5,0.817,,,,,,,,,,,
98,,iti,,html-keyboard-response,98,189834,0.0-1.0-124.0,0,0,59346,,,,,,,,,,,,,,,,,,,,,,,,,99.5,1.0,,,,,,,,,,,
99,,size_choice,,html-keyboard-response,99,190859,0.0-1.0-126.0,0,0,59346,,1023.0,,,68.0,31.0,31.0,1.0,1500.0,S-L,1.0,L,S,3.0,1.0,garbagecan,thread,garbagecan2,thread9,31.0,148.0,/static/Size_judgement/Stimuli/Size_stims/L/garbagecan/garbagecan5.jpg,/static/Size_judgement/Stimuli/Size_stims/S/thread/thread8.jpg,1.0,100.523,1.023,0.0,1.0,garbagecan,thread,L,S,3.0,1.0,garbagecan2,thread9,
100,,size_choice_confirmation,,html-keyboard-response,100,191340,0.0-1.0-127.0-0.0,0,0,59346,,,,,,31.0,,,,,,,,,,,,,,,,,,,101.0,0.477,,,,,,,,,,,
101,,iti,,html-keyboard-response,101,192843,0.0-1.0-128.0,0,0,59346,,,,,,,,,,,,,,,,,,,,,,,,,102.5,1.5,,,,,,,,,,,
102,,size_choice,,html-keyboard-response,102,194015,0.0-1.0-130.0,0,0,59346,,1171.0,,,75.0,32.0,32.0,1.0,2000.0,M-L,0.0,M,L,2.0,3.0,handsaw,deskchair,handsaw9,deskchair2,88.0,11.0,/static/Size_judgement/Stimuli/Size_stims/M/handsaw/handsaw6.jpg,/static/Size_judgement/Stimuli/Size_stims/L/deskchair/deskchair8.jpg,1.0,103.671,1.171,0.0,0.0,deskchair,handsaw,L,M,3.0,2.0,deskchair2,handsaw9,
103,,size_choice_confirmation,,html-keyboard-response,103,194348,0.0-1.0-131.0-0.0,0,0,59346,,,,,,32.0,,,,,,,,,,,,,,,,,,,104.0,0.329,,,,,,,,,,,
104,,iti,,html-keyboard-response,104,196350,0.0-1.0-132.0,0,0,59346,,,,,,,,,,,,,,,,,,,,,,,,,106.0,2.0,,,,,,,,,,,
105,,size_choice,,html-keyboard-response,105,197600,0.0-1.0-134.0,0,0,59346,,1247.0,,,68.0,33.0,33.0,1.0,1000.0,S-L,1.0,L,S,3.0,1.0,garbagecan,teabag,garbagecan3,teabag8,32.0,137.0,/static/Size_judgement/Stimuli/Size_stims/L/garbagecan/garbagecan7.jpg,/static/Size_judgement/Stimuli/Size_stims/S/teabag/teabag7.jpg,1.0,107.247,1.247,0.0,1.0,garbagecan,teabag,L,S,3.0,1.0,garbagecan3,teabag8,
106,,size_choice_confirmation,,html-keyboard-response,106,197859,0.0-1.0-135.0-0.0,0,0,59346,,,,,,33.0,,,,,,,,,,,,,,,,,,,107.5,0.253,,,,,,,,,,,
107,,iti,,html-keyboard-response,107,198862,0.0-1.0-136.0,0,0,59346,,,,,,,,,,,,,,,,,,,,,,,,,108.5,1.0,,,,,,,,,,,
108,,size_choice,,html-keyboard-response,108,200353,0.0-1.0-138.0,0,0,59346,,1488.0,,,75.0,34.0,34.0,1.0,1000.0,M-L,0.0,M,L,2.0,3.0,handsaw,dishwasher,handsaw2,dishwasher4,81.0,23.0,/static/Size_judgement/Stimuli/Size_stims/M/handsaw/handsaw9.jpg,/static/Size_judgement/Stimuli/Size_stims/L/dishwasher/dishwasher5.jpg,1.0,109.988,1.488,0.0,0.0,dishwasher,handsaw,L,M,3.0,2.0,dishwasher4,handsaw2,
109,,size_choice_confirmation,,html-keyboard-response,109,200370,0.0-1.0-139.0-0.0,0,0,59346,,,,,,34.0,,,,,,,,,,,,,,,,,,,110.0,0.012,,,,,,,,,,,
110,,iti,,html-keyboard-response,110,201373,0.0-1.0-140.0,0,0,59346,,,,,,,,,,,,,,,,,,,,,,,,,111.0,1.0,,,,,,,,,,,
111,,size_choice,,html-keyboard-response,111,201944,0.0-1.0-142.0,0,0,59346,,568.0,,,68.0,35.0,35.0,1.0,1500.0,M-L,1.0,L,M,3.0,2.0,dishwasher,ketchup,dishwasher1,ketchup4,20.0,93.0,/static/Size_judgement/Stimuli/Size_stims/L/dishwasher/dishwasher10.jpg,/static/Size_judgement/Stimuli/Size_stims/M/ketchup/ketchup2.jpg,1.0,111.568,0.568,0.0,1.0,dishwasher,ketchup,L,M,3.0,2.0,dishwasher1,ketchup4,
112,,size_choice_confirmation,,html-keyboard-response,112,202881,0.0-1.0-143.0-0.0,0,0,59346,,,,,,35.0,,,,,,,,,,,,,,,,,,,112.5,0.932,,,,,,,,,,,
113,,iti,,html-keyboard-response,113,204383,0.0-1.0-144.0,0,0,59346,,,,,,,,,,,,,,,,,,,,,,,,,114.0,1.5,,,,,,,,,,,
114,,size_choice,,html-keyboard-response,114,205498,0.0-1.0-146.0,0,0,59346,,1113.0,,,75.0,36.0,36.0,1.0,1500.0,M-L,0.0,M,L,2.0,3.0,hairdryer,cooler,hairdryer6,cooler3,75.0,2.0,/static/Size_judgement/Stimuli/Size_stims/M/hairdryer/hairdryer8.jpg,/static/Size_judgement/Stimuli/Size_stims/L/cooler/cooler2.jpg,1.0,115.113,1.113,0.0,0.0,cooler,hairdryer,L,M,3.0,2.0,cooler3,hairdryer6,
115,,size_choice_confirmation,,html-keyboard-response,115,205890,0.0-1.0-147.0-0.0,0,0,59346,,,,,,36.0,,,,,,,,,,,,,,,,,,,115.5,0.387,,,,,,,,,,,
116,,iti,,html-keyboard-response,116,207393,0.0-1.0-148.0,0,0,59346,,,,,,,,,,,,,,,,,,,,,,,,,117.0,1.5,,,,,,,,,,,
117,,size_choice,,html-keyboard-response,117,208109,0.0-1.0-150.0,0,0,59346,,713.0,,,68.0,37.0,37.0,1.0,1000.0,S-XL,1.0,XL,S,4.0,1.0,car,teabag,car4,teabag10,153.0,139.0,/static/Size_judgement/Stimuli/Size_stims/XL/car/car6.jpg,/static/Size_judgement/Stimuli/Size_stims/S/teabag/teabag4.jpg,1.0,117.713,0.713,0.0,1.0,car,teabag,XL,S,4.0,1.0,car4,teabag10,
118,,size_choice_confirmation,,html-keyboard-response,118,208899,0.0-1.0-151.0-0.0,0,0,59346,,,,,,37.0,,,,,,,,,,,,,,,,,,,118.5,0.787,,,,,,,,,,,
119,,iti,,html-keyboard-response,119,209901,0.0-1.0-152.0,0,0,59346,,,,,,,,,,,,,,,,,,,,,,,,,119.5,1.0,,,,,,,,,,,
120,,size_choice,,html-keyboard-response,120,210570,0.0-1.0-154.0,0,0,59346,,668.0,,,68.0,38.0,38.0,1.0,1500.0,M-XL,1.0,XL,M,4.0,2.0,tractor,handsaw,tractor8,handsaw10,187.0,89.0,/static/Size_judgement/Stimuli/Size_stims/XL/tractor/tractor10.jpg,/static/Size_judgement/Stimuli/Size_stims/M/handsaw/handsaw10.jpg,1.0,120.168,0.668,0.0,1.0,tractor,handsaw,XL,M,4.0,2.0,tractor8,handsaw10,
121,,size_choice_confirmation,,html-keyboard-response,121,211407,0.0-1.0-155.0-0.0,0,0,59346,,,,,,38.0,,,,,,,,,,,,,,,,,,,121.0,0.832,,,,,,,,,,,
122,,iti,,html-keyboard-response,122,212911,0.0-1.0-156.0,0,0,59346,,,,,,,,,,,,,,,,,,,,,,,,,122.5,1.5,,,,,,,,,,,
123,,size_choice,,html-keyboard-response,123,213925,0.0-1.0-158.0,0,0,59346,,1010.0,,,68.0,39.0,39.0,1.0,1500.0,S-M,1.0,M,S,2.0,1.0,basketball,screws,basketball6,screws9,55.0,128.0,/static/Size_judgement/Stimuli/Size_stims/M/basketball/basketball2.jpg,/static/Size_judgement/Stimuli/Size_stims/S/screws/screws8.jpg,1.0,123.51,1.01,0.0,1.0,basketball,screws,M,S,2.0,1.0,basketball6,screws9,
124,,size_choice_confirmation,,html-keyboard-response,124,214419,0.0-1.0-159.0-0.0,0,0,59346,,,,,,39.0,,,,,,,,,,,,,,,,,,,124.0,0.49,,,,,,,,,,,
125,,iti,,html-keyboard-response,125,215922,0.0-1.0-160.0,0,0,59346,,,,,,,,,,,,,,,,,,,,,,,,,125.5,1.5,,,,,,,,,,,
126,,size_choice,,html-keyboard-response,126,216865,0.0-1.0-162.0,0,0,59346,,940.0,,,75.0,40.0,40.0,1.0,1000.0,M-XL,0.0,M,XL,2.0,4.0,hairdryer,dumptruck,hairdryer1,dumptruck5,70.0,174.0,/static/Size_judgement/Stimuli/Size_stims/M/hairdryer/hairdryer11.jpg,/static/Size_judgement/Stimuli/Size_stims/XL/dumptruck/dumptruck3.jpg,1.0,126.44,0.94,0.0,0.0,dumptruck,hairdryer,XL,M,4.0,2.0,dumptruck5,hairdryer1,
127,,size_choice_confirmation,,html-keyboard-response,127,217429,0.0-1.0-163.0-0.0,0,0,59346,,,,,,40.0,,,,,,,,,,,,,,,,,,,127.0,0.56,,,,,,,,,,,
128,,iti,,html-keyboard-response,128,218431,0.0-1.0-164.0,0,0,59346,,,,,,,,,,,,,,,,,,,,,,,,,128.0,1.0,,,,,,,,,,,
129,,size_choice,,html-keyboard-response,129,219228,0.0-1.0-166.0,0,0,59346,,794.0,,,75.0,41.0,41.0,1.0,1500.0,S-L,0.0,S,L,1.0,3.0,paperclip,mailbox,paperclip2,mailbox7,111.0,46.0,/static/Size_judgement/Stimuli/Size_stims/S/paperclip/paperclip8.jpg,/static/Size_judgement/Stimuli/Size_stims/L/mailbox/mailbox7.jpg,1.0,128.794,0.794,0.0,0.0,mailbox,paperclip,L,S,3.0,1.0,mailbox7,paperclip2,
130,,size_choice_confirmation,,html-keyboard-response,130,219939,0.0-1.0-167.0-0.0,0,0,59346,,,,,,41.0,,,,,,,,,,,,,,,,,,,129.5,0.706,,,,,,,,,,,
131,,iti,,html-keyboard-response,131,221442,0.0-1.0-168.0,0,0,59346,,,,,,,,,,,,,,,,,,,,,,,,,131.0,1.5,,,,,,,,,,,
132,,size_choice,,html-keyboard-response,132,222241,0.0-1.0-170.0,0,0,59346,,795.0,,,75.0,42.0,42.0,1.0,2000.0,S-XL,0.0,S,XL,1.0,4.0,thread,dumptruck,thread8,dumptruck10,147.0,179.0,/static/Size_judgement/Stimuli/Size_stims/S/thread/thread10.jpg,/static/Size_judgement/Stimuli/Size_stims/XL/dumptruck/dumptruck4.jpg,1.0,131.795,0.795,0.0,0.0,dumptruck,thread,XL,S,4.0,1.0,dumptruck10,thread8,
133,,size_choice_confirmation,,html-keyboard-response,133,222962,0.0-1.0-171.0-0.0,0,0,59346,,,,,,42.0,,,,,,,,,,,,,,,,,,,132.5,0.705,,,,,,,,,,,
134,,iti,,html-keyboard-response,134,224964,0.0-1.0-172.0,0,0,59346,,,,,,,,,,,,,,,,,,,,,,,,,134.5,2.0,,,,,,,,,,,
135,,size_choice,,html-keyboard-response,135,225974,0.0-1.0-174.0,0,0,59346,,1006.0,,,75.0,43.0,43.0,1.0,3000.0,L-XL,0.0,L,XL,3.0,4.0,cooler,tractor,cooler1,tractor10,0.0,189.0,/static/Size_judgement/Stimuli/Size_stims/L/cooler/cooler8.jpg,/static/Size_judgement/Stimuli/Size_stims/XL/tractor/tractor8.jpg,1.0,135.506,1.006,0.0,0.0,tractor,cooler,XL,L,4.0,3.0,tractor10,cooler1,
136,,size_choice_confirmation,,html-keyboard-response,136,226473,0.0-1.0-175.0-0.0,0,0,59346,,,,,,43.0,,,,,,,,,,,,,,,,,,,136.0,0.494,,,,,,,,,,,
137,,iti,,html-keyboard-response,137,229476,0.0-1.0-176.0,0,0,59346,,,,,,,,,,,,,,,,,,,,,,,,,139.0,3.0,,,,,,,,,,,
138,,size_choice,,html-keyboard-response,138,230811,0.0-1.0-178.0,0,0,59346,,1333.0,,,75.0,44.0,44.0,1.0,1500.0,M-M,,M,M,2.0,2.0,hairdryer,coffeemaker,hairdryer10,coffeemaker1,79.0,60.0,/static/Size_judgement/Stimuli/Size_stims/M/hairdryer/hairdryer6.jpg,/static/Size_judgement/Stimuli/Size_stims/M/coffeemaker/coffeemaker14.jpg,,140.333,1.333,0.0,0.0,coffeemaker,hairdryer,M,M,2.0,2.0,coffeemaker1,hairdryer10,
139,,size_choice_confirmation,,html-keyboard-response,139,230981,0.0-1.0-179.0-0.0,0,0,59346,,,,,,44.0,,,,,,,,,,,,,,,,,,,140.5,0.167,,,,,,,,,,,
140,,iti,,html-keyboard-response,140,232484,0.0-1.0-180.0,0,0,59346,,,,,,,,,,,,,,,,,,,,,,,,,142.0,1.5,,,,,,,,,,,
141,,block_over,,html-keyboard-response,141,239811,0.0-1.0-181.0-0.0,0,0,59346,,7325.0,,,68.0,44.0,,,,,,,,,,,,,,,,,,,,,,,,,,,,,,,
142,,size_choice,,html-keyboard-response,142,240791,0.0-1.0-182.0,0,0,59346,,977.0,,,75.0,45.0,45.0,2.0,3500.0,L-XL,0.0,L,XL,3.0,4.0,cooler,car,cooler4,car3,3.0,152.0,/static/Size_judgement/Stimuli/Size_stims/L/cooler/cooler3.jpg,/static/Size_judgement/Stimuli/Size_stims/XL/car/car4.jpg,1.0,142.977,0.977,0.0,0.0,car,cooler,XL,L,4.0,3.0,car3,cooler4,
143,,size_choice_confirmation,,html-keyboard-response,143,241317,0.0-1.0-183.0-0.0,0,0,59346,,,,,,45.0,,,,,,,,,,,,,,,,,,,143.5,0.523,,,,,,,,,,,
144,,iti,,html-keyboard-response,144,244819,0.0-1.0-184.0,0,0,59346,,,,,,,,,,,,,,,,,,,,,,,,,147.0,3.5,,,,,,,,,,,
145,,size_choice,,html-keyboard-response,145,245965,0.0-1.0-186.0,0,0,59346,,1143.0,,,68.0,46.0,46.0,2.0,2000.0,L-L,,L,L,3.0,3.0,deskchair,cooler,deskchair8,cooler2,17.0,1.0,/static/Size_judgement/Stimuli/Size_stims/L/deskchair/deskchair1.jpg,/static/Size_judgement/Stimuli/Size_stims/L/cooler/cooler9.jpg,,148.143,1.143,0.0,1.0,deskchair,cooler,L,L,3.0,3.0,deskchair8,cooler2,
146,,size_choice_confirmation,,html-keyboard-response,146,246326,0.0-1.0-187.0-0.0,0,0,59346,,,,,,46.0,,,,,,,,,,,,,,,,,,,148.5,0.357,,,,,,,,,,,
147,,iti,,html-keyboard-response,147,248327,0.0-1.0-188.0,0,0,59346,,,,,,,,,,,,,,,,,,,,,,,,,150.5,2.0,,,,,,,,,,,
148,,size_choice,,html-keyboard-response,148,249628,0.0-1.0-190.0,0,0,59346,,1298.0,,,75.0,47.0,47.0,2.0,1500.0,M-L,0.0,M,L,2.0,3.0,basketball,cooler,basketball3,cooler9,52.0,8.0,/static/Size_judgement/Stimuli/Size_stims/M/basketball/basketball10.jpg,/static/Size_judgement/Stimuli/Size_stims/L/cooler/cooler7.jpg,1.0,151.798,1.298,0.0,0.0,cooler,basketball,L,M,3.0,2.0,cooler9,basketball3,
149,,size_choice_confirmation,,html-keyboard-response,149,249833,0.0-1.0-191.0-0.0,0,0,59346,,,,,,47.0,,,,,,,,,,,,,,,,,,,152.0,0.202,,,,,,,,,,,
150,,iti,,html-keyboard-response,150,251335,0.0-1.0-192.0,0,0,59346,,,,,,,,,,,,,,,,,,,,,,,,,153.5,1.5,,,,,,,,,,,
151,,size_choice,,html-keyboard-response,151,252025,0.0-1.0-194.0,0,0,59346,,684.0,,,68.0,48.0,48.0,2.0,1000.0,M-XL,1.0,XL,M,4.0,2.0,car,ketchup,car8,ketchup5,157.0,94.0,/static/Size_judgement/Stimuli/Size_stims/XL/car/car14.jpg,/static/Size_judgement/Stimuli/Size_stims/M/ketchup/ketchup3.jpg,1.0,154.184,0.684,0.0,1.0,car,ketchup,XL,M,4.0,2.0,car8,ketchup5,
152,,size_choice_confirmation,,html-keyboard-response,152,252844,0.0-1.0-195.0-0.0,0,0,59346,,,,,,48.0,,,,,,,,,,,,,,,,,,,155.0,0.816,,,,,,,,,,,
153,,iti,,html-keyboard-response,153,253847,0.0-1.0-196.0,0,0,59346,,,,,,,,,,,,,,,,,,,,,,,,,156.0,1.0,,,,,,,,,,,
154,,size_choice,,html-keyboard-response,154,254584,0.0-1.0-198.0,0,0,59346,,734.0,,,75.0,49.0,49.0,2.0,1000.0,S-S,,S,S,1.0,1.0,die,thread,die3,thread6,102.0,145.0,/static/Size_judgement/Stimuli/Size_stims/S/die/die10.jpg,/static/Size_judgement/Stimuli/Size_stims/S/thread/thread2.jpg,,156.734,0.734,0.0,0.0,thread,die,S,S,1.0,1.0,thread6,die3,
155,,size_choice_confirmation,,html-keyboard-response,155,255356,0.0-1.0-199.0-0.0,0,0,59346,,,,,,49.0,,,,,,,,,,,,,,,,,,,157.5,0.766,,,,,,,,,,,
156,,iti,,html-keyboard-response,156,256358,0.0-1.0-200.0,0,0,59346,,,,,,,,,,,,,,,,,,,,,,,,,158.5,1.0,,,,,,,,,,,
157,,size_choice,,html-keyboard-response,157,257056,0.0-1.0-202.0,0,0,59346,,695.0,,,75.0,50.0,50.0,2.0,2000.0,S-XL,0.0,S,XL,1.0,4.0,thread,car,thread3,car10,142.0,159.0,/static/Size_judgement/Stimuli/Size_stims/S/thread/thread4.jpg,/static/Size_judgement/Stimuli/Size_stims/XL/car/car9.jpg,1.0,159.195,0.695,0.0,0.0,car,thread,XL,S,4.0,1.0,car10,thread3,
158,,size_choice_confirmation,,html-keyboard-response,158,257864,0.0-1.0-203.0-0.0,0,0,59346,,,,,,50.0,,,,,,,,,,,,,,,,,,,160.0,0.805,,,,,,,,,,,
159,,iti,,html-keyboard-response,159,259867,0.0-1.0-204.0,0,0,59346,,,,,,,,,,,,,,,,,,,,,,,,,162.0,2.0,,,,,,,,,,,
160,,size_choice,,html-keyboard-response,160,261257,0.0-1.0-206.0,0,0,59346,,1387.0,,,75.0,51.0,51.0,2.0,2000.0,M-M,,M,M,2.0,2.0,ketchup,basketball,ketchup9,basketball9,98.0,58.0,/static/Size_judgement/Stimuli/Size_stims/M/ketchup/ketchup7.jpg,/static/Size_judgement/Stimuli/Size_stims/M/basketball/basketball5.jpg,,163.387,1.387,0.0,0.0,basketball,ketchup,M,M,2.0,2.0,basketball9,ketchup9,
161,,size_choice_confirmation,,html-keyboard-response,161,261373,0.0-1.0-207.0-0.0,0,0,59346,,,,,,51.0,,,,,,,,,,,,,,,,,,,163.5,0.113,,,,,,,,,,,
162,,iti,,html-keyboard-response,162,263375,0.0-1.0-208.0,0,0,59346,,,,,,,,,,,,,,,,,,,,,,,,,165.5,2.0,,,,,,,,,,,
163,,size_choice,,html-keyboard-response,163,264754,0.0-1.0-210.0,0,0,59346,,1376.0,,,75.0,52.0,52.0,2.0,1500.0,S-M,0.0,S,M,1.0,2.0,thread,ketchup,thread4,ketchup7,143.0,96.0,/static/Size_judgement/Stimuli/Size_stims/S/thread/thread5.jpg,/static/Size_judgement/Stimuli/Size_stims/M/ketchup/ketchup4.jpg,1.0,166.876,1.376,0.0,0.0,ketchup,thread,M,S,2.0,1.0,ketchup7,thread4,
164,,size_choice_confirmation,,html-keyboard-response,164,264882,0.0-1.0-211.0-0.0,0,0,59346,,,,,,52.0,,,,,,,,,,,,,,,,,,,167.0,0.124,,,,,,,,,,,
165,,iti,,html-keyboard-response,165,266397,0.0-1.0-212.0,0,0,59346,,,,,,,,,,,,,,,,,,,,,,,,,168.5,1.5,,,,,,,,,,,
166,,size_choice,,html-keyboard-response,166,266985,0.0-1.0-214.0,0,0,59346,,585.0,,,75.0,53.0,53.0,2.0,1500.0,M-XL,0.0,M,XL,2.0,4.0,ketchup,van,ketchup1,van8,90.0,197.0,/static/Size_judgement/Stimuli/Size_stims/M/ketchup/ketchup8.jpg,/static/Size_judgement/Stimuli/Size_stims/XL/van/van10.jpg,1.0,169.085,0.585,0.0,0.0,van,ketchup,XL,M,4.0,2.0,van8,ketchup1,
167,,size_choice_confirmation,,html-keyboard-response,167,267905,0.0-1.0-215.0-0.0,0,0,59346,,,,,,53.0,,,,,,,,,,,,,,,,,,,170.0,0.915,,,,,,,,,,,
168,,iti,,html-keyboard-response,168,269408,0.0-1.0-216.0,0,0,59346,,,,,,,,,,,,,,,,,,,,,,,,,171.5,1.5,,,,,,,,,,,
169,,size_choice,,html-keyboard-response,169,270590,0.0-1.0-218.0,0,0,59346,,1179.0,,,68.0,54.0,54.0,2.0,2000.0,XL-XL,,XL,XL,4.0,4.0,dumptruck,car,dumptruck1,car2,170.0,151.0,/static/Size_judgement/Stimuli/Size_stims/XL/dumptruck/dumptruck9.jpg,/static/Size_judgement/Stimuli/Size_stims/XL/car/car3.jpg,,172.679,1.179,0.0,1.0,dumptruck,car,XL,XL,4.0,4.0,dumptruck1,car2,
170,,size_choice_confirmation,,html-keyboard-response,170,270914,0.0-1.0-219.0-0.0,0,0,59346,,,,,,54.0,,,,,,,,,,,,,,,,,,,173.0,0.321,,,,,,,,,,,
171,,iti,,html-keyboard-response,171,272918,0.0-1.0-220.0,0,0,59346,,,,,,,,,,,,,,,,,,,,,,,,,175.0,2.0,,,,,,,,,,,
172,,size_choice,,html-keyboard-response,172,274112,0.0-1.0-222.0,0,0,59346,,1192.0,,,75.0,55.0,55.0,2.0,1000.0,M-L,1.0,L,M,3.0,2.0,mailbox,coffeemaker,mailbox10,coffeemaker10,49.0,69.0,/static/Size_judgement/Stimuli/Size_stims/L/mailbox/mailbox8.jpg,/static/Size_judgement/Stimuli/Size_stims/M/coffeemaker/coffeemaker18.jpg,0.0,176.192,1.192,0.0,0.0,coffeemaker,mailbox,M,L,2.0,3.0,coffeemaker10,mailbox10,
173,,size_choice_confirmation,,html-keyboard-response,173,274424,0.0-1.0-223.0-0.0,0,0,59346,,,,,,55.0,,,,,,,,,,,,,,,,,,,176.5,0.308,,,,,,,,,,,
174,,iti,,html-keyboard-response,174,275425,0.0-1.0-224.0,0,0,59346,,,,,,,,,,,,,,,,,,,,,,,,,177.5,1.0,,,,,,,,,,,
175,,size_choice,,html-keyboard-response,175,276043,0.0-1.0-226.0,0,0,59346,,615.0,,,75.0,56.0,56.0,2.0,1000.0,M-XL,0.0,M,XL,2.0,4.0,hairdryer,van,hairdryer4,van5,73.0,194.0,/static/Size_judgement/Stimuli/Size_stims/M/hairdryer/hairdryer16.jpg,/static/Size_judgement/Stimuli/Size_stims/XL/van/van3.jpg,1.0,178.115,0.615,0.0,0.0,van,hairdryer,XL,M,4.0,2.0,van5,hairdryer4,
176,,size_choice_confirmation,,html-keyboard-response,176,276933,0.0-1.0-227.0-0.0,0,0,59346,,,,,,56.0,,,,,,,,,,,,,,,,,,,179.0,0.885,,,,,,,,,,,
177,,iti,,html-keyboard-response,177,277935,0.0-1.0-228.0,0,0,59346,,,,,,,,,,,,,,,,,,,,,,,,,180.0,1.0,,,,,,,,,,,
178,,size_choice,,html-keyboard-response,178,278899,0.0-1.0-230.0,0,0,59346,,961.0,,,75.0,57.0,57.0,2.0,1000.0,S-L,0.0,S,L,1.0,3.0,die,mailbox,die10,mailbox6,109.0,45.0,/static/Size_judgement/Stimuli/Size_stims/S/die/die6.jpg,/static/Size_judgement/Stimuli/Size_stims/L/mailbox/mailbox6.jpg,1.0,180.961,0.961,0.0,0.0,mailbox,die,L,S,3.0,1.0,mailbox6,die10,
179,,size_choice_confirmation,,html-keyboard-response,179,279442,0.0-1.0-231.0-0.0,0,0,59346,,,,,,57.0,,,,,,,,,,,,,,,,,,,181.5,0.539,,,,,,,,,,,
180,,iti,,html-keyboard-response,180,280445,0.0-1.0-232.0,0,0,59346,,,,,,,,,,,,,,,,,,,,,,,,,182.5,1.0,,,,,,,,,,,
181,,size_choice,,html-keyboard-response,181,281166,0.0-1.0-234.0,0,0,59346,,718.0,,,68.0,58.0,58.0,2.0,3000.0,M-XL,1.0,XL,M,4.0,2.0,crane,ketchup,crane6,ketchup6,165.0,95.0,/static/Size_judgement/Stimuli/Size_stims/XL/crane/crane2.jpg,/static/Size_judgement/Stimuli/Size_stims/M/ketchup/ketchup1.jpg,1.0,183.218,0.718,0.0,1.0,crane,ketchup,XL,M,4.0,2.0,crane6,ketchup6,
182,,size_choice_confirmation,,html-keyboard-response,182,281957,0.0-1.0-235.0-0.0,0,0,59346,,,,,,58.0,,,,,,,,,,,,,,,,,,,184.0,0.782,,,,,,,,,,,
183,,iti,,html-keyboard-response,183,284959,0.0-1.0-236.0,0,0,59346,,,,,,,,,,,,,,,,,,,,,,,,,187.0,3.0,,,,,,,,,,,
184,,size_choice,,html-keyboard-response,184,285572,0.0-1.0-238.0,0,0,59346,,611.0,,,68.0,59.0,59.0,2.0,1500.0,S-XL,1.0,XL,S,4.0,1.0,van,teabag,van4,teabag3,193.0,132.0,/static/Size_judgement/Stimuli/Size_stims/XL/van/van7.jpg,/static/Size_judgement/Stimuli/Size_stims/S/teabag/teabag1.jpg,1.0,187.611,0.611,0.0,1.0,van,teabag,XL,S,4.0,1.0,van4,teabag3,
185,,size_choice_confirmation,,html-keyboard-response,185,286466,0.0-1.0-239.0-0.0,0,0,59346,,,,,,59.0,,,,,,,,,,,,,,,,,,,188.5,0.889,,,,,,,,,,,
186,,iti,,html-keyboard-response,186,287968,0.0-1.0-240.0,0,0,59346,,,,,,,,,,,,,,,,,,,,,,,,,190.0,1.5,,,,,,,,,,,
187,,size_choice,,html-keyboard-response,187,288933,0.0-1.0-242.0,0,0,59346,,962.0,,,75.0,60.0,60.0,2.0,1500.0,S-L,0.0,S,L,1.0,3.0,paperclip,deskchair,paperclip4,deskchair3,113.0,12.0,/static/Size_judgement/Stimuli/Size_stims/S/paperclip/paperclip3.jpg,/static/Size_judgement/Stimuli/Size_stims/L/deskchair/deskchair10.jpg,1.0,190.962,0.962,0.0,0.0,deskchair,paperclip,L,S,3.0,1.0,deskchair3,paperclip4,
188,,size_choice_confirmation,,html-keyboard-response,188,289474,0.0-1.0-243.0-0.0,0,0,59346,,,,,,60.0,,,,,,,,,,,,,,,,,,,191.5,0.538,,,,,,,,,,,
189,,iti,,html-keyboard-response,189,290978,0.0-1.0-244.0,0,0,59346,,,,,,,,,,,,,,,,,,,,,,,,,193.0,1.5,,,,,,,,,,,
190,,size_choice,,html-keyboard-response,190,292480,0.0-1.0-246.0,0,0,59346,,,,,,61.0,61.0,2.0,1000.0,L-L,,L,L,3.0,3.0,dishwasher,garbagecan,dishwasher5,garbagecan1,24.0,30.0,/static/Size_judgement/Stimuli/Size_stims/L/dishwasher/dishwasher4.jpg,/static/Size_judgement/Stimuli/Size_stims/L/garbagecan/garbagecan4.jpg,,194.5,1.5,1.0,,,,,,,,,,
191,,iti,,html-keyboard-response,191,293483,0.0-1.0-248.0,0,0,59346,,,,,,,,,,,,,,,,,,,,,,,,,195.5,1.0,,,,,,,,,,,
192,,size_choice,,html-keyboard-response,192,294758,0.0-1.0-250.0,0,0,59346,,1272.0,,,75.0,62.0,62.0,2.0,1000.0,M-L,0.0,M,L,2.0,3.0,ketchup,deskchair,ketchup3,deskchair7,92.0,16.0,/static/Size_judgement/Stimuli/Size_stims/M/ketchup/ketchup10.jpg,/static/Size_judgement/Stimuli/Size_stims/L/deskchair/deskchair4.jpg,1.0,196.772,1.272,0.0,0.0,deskchair,ketchup,L,M,3.0,2.0,deskchair7,ketchup3,
193,,size_choice_confirmation,,html-keyboard-response,193,294991,0.0-1.0-251.0-0.0,0,0,59346,,,,,,62.0,,,,,,,,,,,,,,,,,,,197.0,0.228,,,,,,,,,,,
194,,iti,,html-keyboard-response,194,295994,0.0-1.0-252.0,0,0,59346,,,,,,,,,,,,,,,,,,,,,,,,,198.0,1.0,,,,,,,,,,,
195,,size_choice,,html-keyboard-response,195,297112,0.0-1.0-254.0,0,0,59346,,1116.0,,,75.0,63.0,63.0,2.0,2000.0,S-M,0.0,S,M,1.0,2.0,teabag,coffeemaker,teabag2,coffeemaker3,131.0,62.0,/static/Size_judgement/Stimuli/Size_stims/S/teabag/teabag8.jpg,/static/Size_judgement/Stimuli/Size_stims/M/coffeemaker/coffeemaker13.jpg,1.0,199.116,1.116,0.0,0.0,coffeemaker,teabag,M,S,2.0,1.0,coffeemaker3,teabag2,
196,,size_choice_confirmation,,html-keyboard-response,196,297499,0.0-1.0-255.0-0.0,0,0,59346,,,,,,63.0,,,,,,,,,,,,,,,,,,,199.5,0.384,,,,,,,,,,,
197,,iti,,html-keyboard-response,197,299502,0.0-1.0-256.0,0,0,59346,,,,,,,,,,,,,,,,,,,,,,,,,201.5,2.0,,,,,,,,,,,
198,,size_choice,,html-keyboard-response,198,300380,0.0-1.0-258.0,0,0,59346,,875.0,,,68.0,64.0,64.0,2.0,1000.0,M-L,0.0,M,L,2.0,3.0,coffeemaker,garbagecan,coffeemaker6,garbagecan10,65.0,39.0,/static/Size_judgement/Stimuli/Size_stims/M/coffeemaker/coffeemaker8.jpg,/static/Size_judgement/Stimuli/Size_stims/L/garbagecan/garbagecan11.jpg,0.0,202.375,0.875,0.0,1.0,coffeemaker,garbagecan,M,L,2.0,3.0,coffeemaker6,garbagecan10,
199,,size_choice_confirmation,,html-keyboard-response,199,301008,0.0-1.0-259.0-0.0,0,0,59346,,,,,,64.0,,,,,,,,,,,,,,,,,,,203.0,0.625,,,,,,,,,,,
200,,iti,,html-keyboard-response,200,302010,0.0-1.0-260.0,0,0,59346,,,,,,,,,,,,,,,,,,,,,,,,,204.0,1.0,,,,,,,,,,,
201,,size_choice,,html-keyboard-response,201,303379,0.0-1.0-262.0,0,0,59346,,1367.0,,,68.0,65.0,65.0,2.0,1000.0,S-XL,1.0,XL,S,4.0,1.0,crane,paperclip,crane1,paperclip3,160.0,112.0,/static/Size_judgement/Stimuli/Size_stims/XL/crane/crane7.jpg,/static/Size_judgement/Stimuli/Size_stims/S/paperclip/paperclip1.jpg,1.0,205.367,1.367,0.0,1.0,crane,paperclip,XL,S,4.0,1.0,crane1,paperclip3,
202,,size_choice_confirmation,,html-keyboard-response,202,303516,0.0-1.0-263.0-0.0,0,0,59346,,,,,,65.0,,,,,,,,,,,,,,,,,,,205.5,0.133,,,,,,,,,,,
203,,iti,,html-keyboard-response,203,304519,0.0-1.0-264.0,0,0,59346,,,,,,,,,,,,,,,,,,,,,,,,,206.5,1.0,,,,,,,,,,,
204,,size_choice,,html-keyboard-response,204,305960,0.0-1.0-266.0,0,0,59346,,1438.0,,,75.0,66.0,66.0,2.0,2000.0,M-M,,M,M,2.0,2.0,hairdryer,handsaw,hairdryer9,handsaw4,78.0,83.0,/static/Size_judgement/Stimuli/Size_stims/M/hairdryer/hairdryer5.jpg,/static/Size_judgement/Stimuli/Size_stims/M/handsaw/handsaw3.jpg,,207.938,1.438,0.0,0.0,handsaw,hairdryer,M,M,2.0,2.0,handsaw4,hairdryer9,
205,,size_choice_confirmation,,html-keyboard-response,205,306026,0.0-1.0-267.0-0.0,0,0,59346,,,,,,66.0,,,,,,,,,,,,,,,,,,,208.0,0.062,,,,,,,,,,,
206,,iti,,html-keyboard-response,206,308028,0.0-1.0-268.0,0,0,59346,,,,,,,,,,,,,,,,,,,,,,,,,210.0,2.0,,,,,,,,,,,
207,,size_choice,,html-keyboard-response,207,309532,0.0-1.0-270.0,0,0,59346,,,,,,67.0,67.0,2.0,1500.0,S-S,,S,S,1.0,1.0,paperclip,screws,paperclip1,screws10,110.0,129.0,/static/Size_judgement/Stimuli/Size_stims/S/paperclip/paperclip9.jpg,/static/Size_judgement/Stimuli/Size_stims/S/screws/screws9.jpg,,211.5,1.5,1.0,,,,,,,,,,
208,,iti,,html-keyboard-response,208,311034,0.0-1.0-272.0,0,0,59346,,,,,,,,,,,,,,,,,,,,,,,,,213.0,1.5,,,,,,,,,,,
209,,size_choice,,html-keyboard-response,209,312499,0.0-1.0-274.0,0,0,59346,,1460.0,,,68.0,68.0,68.0,2.0,1500.0,M-XL,1.0,XL,M,4.0,2.0,tractor,coffeemaker,tractor2,coffeemaker7,181.0,66.0,/static/Size_judgement/Stimuli/Size_stims/XL/tractor/tractor7.jpg,/static/Size_judgement/Stimuli/Size_stims/M/coffeemaker/coffeemaker9.jpg,1.0,214.46,1.46,0.0,1.0,tractor,coffeemaker,XL,M,4.0,2.0,tractor2,coffeemaker7,
210,,size_choice_confirmation,,html-keyboard-response,210,312542,0.0-1.0-275.0-0.0,0,0,59346,,,,,,68.0,,,,,,,,,,,,,,,,,,,214.5,0.04,,,,,,,,,,,
211,,iti,,html-keyboard-response,211,314046,0.0-1.0-276.0,0,0,59346,,,,,,,,,,,,,,,,,,,,,,,,,216.0,1.5,,,,,,,,,,,
212,,size_choice,,html-keyboard-response,212,314607,0.0-1.0-278.0,0,0,59346,,559.0,,,68.0,69.0,69.0,2.0,2000.0,L-XL,1.0,XL,L,4.0,3.0,crane,deskchair,crane4,deskchair1,163.0,10.0,/static/Size_judgement/Stimuli/Size_stims/XL/crane/crane5.jpg,/static/Size_judgement/Stimuli/Size_stims/L/deskchair/deskchair9.jpg,1.0,216.559,0.559,0.0,1.0,crane,deskchair,XL,L,4.0,3.0,crane4,deskchair1,
213,,size_choice_confirmation,,html-keyboard-response,213,315552,0.0-1.0-279.0-0.0,0,0,59346,,,,,,69.0,,,,,,,,,,,,,,,,,,,217.5,0.941,,,,,,,,,,,
214,,iti,,html-keyboard-response,214,317554,0.0-1.0-280.0,0,0,59346,,,,,,,,,,,,,,,,,,,,,,,,,219.5,2.0,,,,,,,,,,,
215,,size_choice,,html-keyboard-response,215,318564,0.0-1.0-282.0,0,0,59346,,1007.0,,,68.0,70.0,70.0,2.0,2000.0,S-L,1.0,L,S,3.0,1.0,garbagecan,die,garbagecan6,die8,35.0,107.0,/static/Size_judgement/Stimuli/Size_stims/L/garbagecan/garbagecan14.jpg,/static/Size_judgement/Stimuli/Size_stims/S/die/die5.jpg,1.0,220.507,1.007,0.0,1.0,garbagecan,die,L,S,3.0,1.0,garbagecan6,die8,
216,,size_choice_confirmation,,html-keyboard-response,216,319061,0.0-1.0-283.0-0.0,0,0,59346,,,,,,70.0,,,,,,,,,,,,,,,,,,,221.0,0.493,,,,,,,,,,,
217,,iti,,html-keyboard-response,217,321063,0.0-1.0-284.0,0,0,59346,,,,,,,,,,,,,,,,,,,,,,,,,223.0,2.0,,,,,,,,,,,
218,,size_choice,,html-keyboard-response,218,322000,0.0-1.0-286.0,0,0,59346,,934.0,,,75.0,71.0,71.0,2.0,1000.0,M-L,0.0,M,L,2.0,3.0,handsaw,cooler,handsaw6,cooler5,85.0,4.0,/static/Size_judgement/Stimuli/Size_stims/M/handsaw/handsaw4.jpg,/static/Size_judgement/Stimuli/Size_stims/L/cooler/cooler10.jpg,1.0,223.934,0.934,0.0,0.0,cooler,handsaw,L,M,3.0,2.0,cooler5,handsaw6,
219,,size_choice_confirmation,,html-keyboard-response,219,322569,0.0-1.0-287.0-0.0,0,0,59346,,,,,,71.0,,,,,,,,,,,,,,,,,,,224.5,0.566,,,,,,,,,,,
220,,iti,,html-keyboard-response,220,323573,0.0-1.0-288.0,0,0,59346,,,,,,,,,,,,,,,,,,,,,,,,,225.5,1.0,,,,,,,,,,,
221,,size_choice,,html-keyboard-response,221,324478,0.0-1.0-290.0,0,0,59346,,895.0,,,75.0,72.0,72.0,2.0,1000.0,S-L,0.0,S,L,1.0,3.0,screws,mailbox,screws4,mailbox1,123.0,40.0,/static/Size_judgement/Stimuli/Size_stims/S/screws/screws6.jpg,/static/Size_judgement/Stimuli/Size_stims/L/mailbox/mailbox3.jpg,1.0,226.395,0.895,0.0,0.0,mailbox,screws,L,S,3.0,1.0,mailbox1,screws4,
222,,size_choice_confirmation,,html-keyboard-response,222,325087,0.0-1.0-291.0-0.0,0,0,59346,,,,,,72.0,,,,,,,,,,,,,,,,,,,227.0,0.605,,,,,,,,,,,
223,,iti,,html-keyboard-response,223,326090,0.0-1.0-292.0,0,0,59346,,,,,,,,,,,,,,,,,,,,,,,,,228.0,1.0,,,,,,,,,,,
224,,size_choice,,html-keyboard-response,224,326694,0.0-1.0-294.0,0,0,59346,,602.0,,,75.0,73.0,73.0,2.0,1000.0,S-XL,0.0,S,XL,1.0,4.0,thread,car,thread5,car1,144.0,150.0,/static/Size_judgement/Stimuli/Size_stims/S/thread/thread1.jpg,/static/Size_judgement/Stimuli/Size_stims/XL/car/car2.jpg,1.0,228.602,0.602,0.0,0.0,car,thread,XL,S,4.0,1.0,car1,thread5,
225,,size_choice_confirmation,,html-keyboard-response,225,327595,0.0-1.0-295.0-0.0,0,0,59346,,,,,,73.0,,,,,,,,,,,,,,,,,,,229.5,0.898,,,,,,,,,,,
226,,iti,,html-keyboard-response,226,328598,0.0-1.0-296.0,0,0,59346,,,,,,,,,,,,,,,,,,,,,,,,,230.5,1.0,,,,,,,,,,,
227,,size_choice,,html-keyboard-response,227,329441,0.0-1.0-298.0,0,0,59346,,841.0,,,75.0,74.0,74.0,2.0,1000.0,XL-XL,,XL,XL,4.0,4.0,van,tractor,van6,tractor9,195.0,188.0,/static/Size_judgement/Stimuli/Size_stims/XL/van/van2.jpg,/static/Size_judgement/Stimuli/Size_stims/XL/tractor/tractor9.jpg,,231.341,0.841,0.0,0.0,tractor,van,XL,XL,4.0,4.0,tractor9,van6,
228,,size_choice_confirmation,,html-keyboard-response,228,330104,0.0-1.0-299.0-0.0,0,0,59346,,,,,,74.0,,,,,,,,,,,,,,,,,,,232.0,0.659,,,,,,,,,,,
229,,iti,,html-keyboard-response,229,331108,0.0-1.0-300.0,0,0,59346,,,,,,,,,,,,,,,,,,,,,,,,,233.0,1.0,,,,,,,,,,,
230,,size_choice,,html-keyboard-response,230,331808,0.0-1.0-302.0,0,0,59346,,696.0,,,75.0,75.0,75.0,2.0,1500.0,M-XL,0.0,M,XL,2.0,4.0,basketball,van,basketball7,van7,56.0,196.0,/static/Size_judgement/Stimuli/Size_stims/M/basketball/basketball6.jpg,/static/Size_judgement/Stimuli/Size_stims/XL/van/van1.jpg,1.0,233.696,0.696,0.0,0.0,van,basketball,XL,M,4.0,2.0,van7,basketball7,
231,,size_choice_confirmation,,html-keyboard-response,231,332617,0.0-1.0-303.0-0.0,0,0,59346,,,,,,75.0,,,,,,,,,,,,,,,,,,,234.5,0.804,,,,,,,,,,,
232,,iti,,html-keyboard-response,232,334120,0.0-1.0-304.0,0,0,59346,,,,,,,,,,,,,,,,,,,,,,,,,236.0,1.5,,,,,,,,,,,
233,,size_choice,,html-keyboard-response,233,334759,0.0-1.0-306.0,0,0,59346,,635.0,,,68.0,76.0,76.0,2.0,1500.0,S-XL,1.0,XL,S,4.0,1.0,dumptruck,teabag,dumptruck7,teabag5,176.0,134.0,/static/Size_judgement/Stimuli/Size_stims/XL/dumptruck/dumptruck6.jpg,/static/Size_judgement/Stimuli/Size_stims/S/teabag/teabag2.jpg,1.0,236.635,0.635,0.0,1.0,dumptruck,teabag,XL,S,4.0,1.0,dumptruck7,teabag5,
234,,size_choice_confirmation,,html-keyboard-response,234,335627,0.0-1.0-307.0-0.0,0,0,59346,,,,,,76.0,,,,,,,,,,,,,,,,,,,237.5,0.865,,,,,,,,,,,
235,,iti,,html-keyboard-response,235,337128,0.0-1.0-308.0,0,0,59346,,,,,,,,,,,,,,,,,,,,,,,,,239.0,1.5,,,,,,,,,,,
236,,size_choice,,html-keyboard-response,236,338059,0.0-1.0-310.0,0,0,59346,,929.0,,,75.0,77.0,77.0,2.0,1500.0,M-L,0.0,M,L,2.0,3.0,ketchup,deskchair,ketchup8,deskchair6,97.0,15.0,/static/Size_judgement/Stimuli/Size_stims/M/ketchup/ketchup5.jpg,/static/Size_judgement/Stimuli/Size_stims/L/deskchair/deskchair5.jpg,1.0,239.929,0.929,0.0,0.0,deskchair,ketchup,L,M,3.0,2.0,deskchair6,ketchup8,
237,,size_choice_confirmation,,html-keyboard-response,237,338635,0.0-1.0-311.0-0.0,0,0,59346,,,,,,77.0,,,,,,,,,,,,,,,,,,,240.5,0.571,,,,,,,,,,,
238,,iti,,html-keyboard-response,238,340138,0.0-1.0-312.0,0,0,59346,,,,,,,,,,,,,,,,,,,,,,,,,242.0,1.5,,,,,,,,,,,
239,,size_choice,,html-keyboard-response,239,340799,0.0-1.0-314.0,0,0,59346,,658.0,,,68.0,78.0,78.0,2.0,3000.0,S-XL,1.0,XL,S,4.0,1.0,crane,paperclip,crane2,paperclip7,161.0,116.0,/static/Size_judgement/Stimuli/Size_stims/XL/crane/crane6.jpg,/static/Size_judgement/Stimuli/Size_stims/S/paperclip/paperclip7.jpg,1.0,242.658,0.658,0.0,1.0,crane,paperclip,XL,S,4.0,1.0,crane2,paperclip7,
240,,size_choice_confirmation,,html-keyboard-response,240,341645,0.0-1.0-315.0-0.0,0,0,59346,,,,,,78.0,,,,,,,,,,,,,,,,,,,243.5,0.842,,,,,,,,,,,
241,,iti,,html-keyboard-response,241,344646,0.0-1.0-316.0,0,0,59346,,,,,,,,,,,,,,,,,,,,,,,,,246.5,3.0,,,,,,,,,,,
242,,size_choice,,html-keyboard-response,242,345387,0.0-1.0-318.0,0,0,59346,,738.0,,,68.0,79.0,79.0,2.0,3500.0,M-XL,1.0,XL,M,4.0,2.0,crane,coffeemaker,crane10,coffeemaker2,169.0,61.0,/static/Size_judgement/Stimuli/Size_stims/XL/crane/crane9.jpg,/static/Size_judgement/Stimuli/Size_stims/M/coffeemaker/coffeemaker12.jpg,1.0,247.238,0.738,0.0,1.0,crane,coffeemaker,XL,M,4.0,2.0,crane10,coffeemaker2,
243,,size_choice_confirmation,,html-keyboard-response,243,346153,0.0-1.0-319.0-0.0,0,0,59346,,,,,,79.0,,,,,,,,,,,,,,,,,,,248.0,0.762,,,,,,,,,,,
244,,iti,,html-keyboard-response,244,349659,0.0-1.0-320.0,0,0,59346,,,,,,,,,,,,,,,,,,,,,,,,,251.5,3.5,,,,,,,,,,,
245,,size_choice,,html-keyboard-response,245,350275,0.0-1.0-322.0,0,0,59346,,613.0,,,68.0,80.0,80.0,2.0,3000.0,S-L,1.0,L,S,3.0,1.0,mailbox,screws,mailbox4,screws1,43.0,120.0,/static/Size_judgement/Stimuli/Size_stims/L/mailbox/mailbox5.jpg,/static/Size_judgement/Stimuli/Size_stims/S/screws/screws4.jpg,1.0,252.113,0.613,0.0,1.0,mailbox,screws,L,S,3.0,1.0,mailbox4,screws1,
246,,size_choice_confirmation,,html-keyboard-response,246,351165,0.0-1.0-323.0-0.0,0,0,59346,,,,,,80.0,,,,,,,,,,,,,,,,,,,253.0,0.887,,,,,,,,,,,
247,,iti,,html-keyboard-response,247,354181,0.0-1.0-324.0,0,0,59346,,,,,,,,,,,,,,,,,,,,,,,,,256.0,3.0,,,,,,,,,,,
248,,size_choice,,html-keyboard-response,248,354896,0.0-1.0-326.0,0,0,59346,,713.0,,,68.0,81.0,81.0,2.0,1000.0,S-L,1.0,L,S,3.0,1.0,dishwasher,teabag,dishwasher6,teabag1,25.0,130.0,/static/Size_judgement/Stimuli/Size_stims/L/dishwasher/dishwasher6.jpg,/static/Size_judgement/Stimuli/Size_stims/S/teabag/teabag9.jpg,1.0,256.713,0.713,0.0,1.0,dishwasher,teabag,L,S,3.0,1.0,dishwasher6,teabag1,
249,,size_choice_confirmation,,html-keyboard-response,249,355687,0.0-1.0-327.0-0.0,0,0,59346,,,,,,81.0,,,,,,,,,,,,,,,,,,,257.5,0.787,,,,,,,,,,,
250,,iti,,html-keyboard-response,250,356690,0.0-1.0-328.0,0,0,59346,,,,,,,,,,,,,,,,,,,,,,,,,258.5,1.0,,,,,,,,,,,
251,,size_choice,,html-keyboard-response,251,357437,0.0-1.0-330.0,0,0,59346,,744.0,,,68.0,82.0,82.0,2.0,1000.0,M-L,1.0,L,M,3.0,2.0,garbagecan,basketball,garbagecan5,basketball1,34.0,50.0,/static/Size_judgement/Stimuli/Size_stims/L/garbagecan/garbagecan3.jpg,/static/Size_judgement/Stimuli/Size_stims/M/basketball/basketball9.jpg,1.0,259.244,0.744,0.0,1.0,garbagecan,basketball,L,M,3.0,2.0,garbagecan5,basketball1,
252,,size_choice_confirmation,,html-keyboard-response,252,358197,0.0-1.0-331.0-0.0,0,0,59346,,,,,,82.0,,,,,,,,,,,,,,,,,,,260.0,0.756,,,,,,,,,,,
253,,iti,,html-keyboard-response,253,359199,0.0-1.0-332.0,0,0,59346,,,,,,,,,,,,,,,,,,,,,,,,,261.0,1.0,,,,,,,,,,,
254,,size_choice,,html-keyboard-response,254,359977,0.0-1.0-334.0,0,0,59346,,776.0,,,68.0,83.0,83.0,2.0,3000.0,S-XL,1.0,XL,S,4.0,1.0,crane,screws,crane3,screws7,162.0,126.0,/static/Size_judgement/Stimuli/Size_stims/XL/crane/crane4.jpg,/static/Size_judgement/Stimuli/Size_stims/S/screws/screws1.jpg,1.0,261.776,0.776,0.0,1.0,crane,screws,XL,S,4.0,1.0,crane3,screws7,
255,,size_choice_confirmation,,html-keyboard-response,255,360705,0.0-1.0-335.0-0.0,0,0,59346,,,,,,83.0,,,,,,,,,,,,,,,,,,,262.5,0.724,,,,,,,,,,,
256,,iti,,html-keyboard-response,256,363708,0.0-1.0-336.0,0,0,59346,,,,,,,,,,,,,,,,,,,,,,,,,265.5,3.0,,,,,,,,,,,
257,,size_choice,,html-keyboard-response,257,364217,0.0-1.0-338.0,0,0,59346,,506.0,,,68.0,84.0,84.0,2.0,3500.0,S-L,1.0,L,S,3.0,1.0,deskchair,screws,deskchair9,screws3,18.0,122.0,/static/Size_judgement/Stimuli/Size_stims/L/deskchair/deskchair3.jpg,/static/Size_judgement/Stimuli/Size_stims/S/screws/screws7.jpg,1.0,266.006,0.506,0.0,1.0,deskchair,screws,L,S,3.0,1.0,deskchair9,screws3,
258,,size_choice_confirmation,,html-keyboard-response,258,365215,0.0-1.0-339.0-0.0,0,0,59346,,,,,,84.0,,,,,,,,,,,,,,,,,,,267.0,0.994,,,,,,,,,,,
259,,iti,,html-keyboard-response,259,368717,0.0-1.0-340.0,0,0,59346,,,,,,,,,,,,,,,,,,,,,,,,,270.5,3.5,,,,,,,,,,,
260,,size_choice,,html-keyboard-response,260,369475,0.0-1.0-342.0,0,0,59346,,755.0,,,75.0,85.0,85.0,2.0,1500.0,S-L,0.0,S,L,1.0,3.0,die,mailbox,die7,mailbox2,106.0,41.0,/static/Size_judgement/Stimuli/Size_stims/S/die/die4.jpg,/static/Size_judgement/Stimuli/Size_stims/L/mailbox/mailbox2.jpg,1.0,271.255,0.755,0.0,0.0,mailbox,die,L,S,3.0,1.0,mailbox2,die7,
261,,size_choice_confirmation,,html-keyboard-response,261,370225,0.0-1.0-343.0-0.0,0,0,59346,,,,,,85.0,,,,,,,,,,,,,,,,,,,272.0,0.745,,,,,,,,,,,
262,,iti,,html-keyboard-response,262,371728,0.0-1.0-344.0,0,0,59346,,,,,,,,,,,,,,,,,,,,,,,,,273.5,1.5,,,,,,,,,,,
263,,size_choice,,html-keyboard-response,263,373207,0.0-1.0-346.0,0,0,59346,,1476.0,,,75.0,86.0,86.0,2.0,1000.0,M-XL,0.0,M,XL,2.0,4.0,coffeemaker,tractor,coffeemaker9,tractor3,68.0,182.0,/static/Size_judgement/Stimuli/Size_stims/M/coffeemaker/coffeemaker7.jpg,/static/Size_judgement/Stimuli/Size_stims/XL/tractor/tractor5.jpg,1.0,274.976,1.476,0.0,0.0,tractor,coffeemaker,XL,M,4.0,2.0,tractor3,coffeemaker9,
264,,size_choice_confirmation,,html-keyboard-response,264,373235,0.0-1.0-347.0-0.0,0,0,59346,,,,,,86.0,,,,,,,,,,,,,,,,,,,275.0,0.024,,,,,,,,,,,
265,,iti,,html-keyboard-response,265,374237,0.0-1.0-348.0,0,0,59346,,,,,,,,,,,,,,,,,,,,,,,,,276.0,1.0,,,,,,,,,,,
266,,size_choice,,html-keyboard-response,266,375186,0.0-1.0-350.0,0,0,59346,,947.0,,,75.0,87.0,87.0,2.0,1000.0,XL-XL,,XL,XL,4.0,4.0,van,tractor,van9,tractor1,198.0,180.0,/static/Size_judgement/Stimuli/Size_stims/XL/van/van9.jpg,/static/Size_judgement/Stimuli/Size_stims/XL/tractor/tractor6.jpg,,276.947,0.947,0.0,0.0,tractor,van,XL,XL,4.0,4.0,tractor1,van9,
267,,size_choice_confirmation,,html-keyboard-response,267,375743,0.0-1.0-351.0-0.0,0,0,59346,,,,,,87.0,,,,,,,,,,,,,,,,,,,277.5,0.553,,,,,,,,,,,
268,,iti,,html-keyboard-response,268,376746,0.0-1.0-352.0,0,0,59346,,,,,,,,,,,,,,,,,,,,,,,,,278.5,1.0,,,,,,,,,,,
269,,size_choice,,html-keyboard-response,269,377572,0.0-1.0-354.0,0,0,59346,,824.0,,,68.0,88.0,88.0,2.0,1500.0,S-XL,1.0,XL,S,4.0,1.0,crane,die,crane7,die4,166.0,103.0,/static/Size_judgement/Stimuli/Size_stims/XL/crane/crane3.jpg,/static/Size_judgement/Stimuli/Size_stims/S/die/die2.jpg,1.0,279.324,0.824,0.0,1.0,crane,die,XL,S,4.0,1.0,crane7,die4,
270,,size_choice_confirmation,,html-keyboard-response,270,378251,0.0-1.0-355.0-0.0,0,0,59346,,,,,,88.0,,,,,,,,,,,,,,,,,,,280.0,0.676,,,,,,,,,,,
271,,iti,,html-keyboard-response,271,379756,0.0-1.0-356.0,0,0,59346,,,,,,,,,,,,,,,,,,,,,,,,,281.5,1.5,,,,,,,,,,,
272,,size_choice,,html-keyboard-response,272,380901,0.0-1.0-358.0,0,0,59346,,1142.0,,,75.0,89.0,89.0,2.0,1000.0,M-L,0.0,M,L,2.0,3.0,coffeemaker,mailbox,coffeemaker8,mailbox8,67.0,47.0,/static/Size_judgement/Stimuli/Size_stims/M/coffeemaker/coffeemaker5.jpg,/static/Size_judgement/Stimuli/Size_stims/L/mailbox/mailbox10.jpg,1.0,282.642,1.142,0.0,0.0,mailbox,coffeemaker,L,M,3.0,2.0,mailbox8,coffeemaker8,
273,,size_choice_confirmation,,html-keyboard-response,273,381263,0.0-1.0-359.0-0.0,0,0,59346,,,,,,89.0,,,,,,,,,,,,,,,,,,,283.0,0.358,,,,,,,,,,,
274,,iti,,html-keyboard-response,274,382265,0.0-1.0-360.0,0,0,59346,,,,,,,,,,,,,,,,,,,,,,,,,284.0,1.0,,,,,,,,,,,0.97
275,,size_final_tally,,html-keyboard-response,275,385057,0.0-2.0,0,0,59346,,2788.0,,,68.0,,,,,,,,,,,,,,,,,,,,,,,,,,,,,,,,
