,success,ttype,start_time,trial_type,trial_index,time_elapsed,internal_node_id,warning,missed_checkup,PID,view_history,rt,responses,repeat_instructions,key_press,index,trial_num,isi,iti,is_practice,block,old_trial,pair_type,within_category,high_cat_on_left,left_category,right_category,left_category_value,right_category_value,left_exemplar,right_exemplar,left_exemplar_value,right_exemplar_value,left_img,right_img,left_img_path,right_img_path,no_response,onset,duration,left_chosen,chosen_category,unchosen_category,chosen_category_value,unchosen_category_value,chosen_exemplar,unchosen_exemplar,chosen_exemplar_value,unchosen_exemplar_value,end_practice,total_bonus_tally,category,category_group_value,category_value_response,did_not_enter_response
0,True,full_screen,d06152022hr1712,fullscreen,0,3130,0.0-0.0,0,0,80,,,,,,,,,,,,,,,,,,,,,,,,,,,,,,,,,,,,,,,,,,,,,
1,,category_learning_instructions,,instructions,1,12272,0.0-1.0-0.0-0.0,0,0,80,"[{""page_index"":0,""viewing_time"":2456},{""page_index"":1,""viewing_time"":927},{""page_index"":2,""viewing_time"":1396},{""page_index"":3,""viewing_time"":687},{""page_index"":4,""viewing_time"":1168},{""page_index"":5,""viewing_time"":1325},{""page_index"":6,""viewing_time"":1179}]",9139.0,,,,,,,,,,,,,,,,,,,,,,,,,,,,,,,,,,,,,,,,,,,
2,,category_learning_comprehension_check,,survey-multi-choice,2,17075,0.0-1.0-0.0-1.0,0,0,80,,4798.0,"{""Q0"":""True"",""Q1"":""True"",""Q2"":""Stay the same"",""Q3"":""middle finger for left and pointer finger for right""}",1.0,,,,,,,,,,,,,,,,,,,,,,,,,,,,,,,,,,,,,,,,,
3,,missed_instruction_checkup,,html-keyboard-response,3,18861,0.0-1.0-0.0-2.0-0.0,0,0,80,,1780.0,,,50.0,,,,,,,,,,,,,,,,,,,,,,,,,,,,,,,,,,,,,,,,
4,,category_learning_instructions,,instructions,4,29774,0.0-1.0-0.1-0.1,0,0,80,"[{""page_index"":0,""viewing_time"":3226},{""page_index"":1,""viewing_time"":585},{""page_index"":2,""viewing_time"":755},{""page_index"":3,""viewing_time"":2755},{""page_index"":4,""viewing_time"":710},{""page_index"":5,""viewing_time"":1646},{""page_index"":6,""viewing_time"":1232}]",10910.0,,,,,,,,,,,,,,,,,,,,,,,,,,,,,,,,,,,,,,,,,,,
5,,category_learning_comprehension_check,,survey-multi-choice,5,34156,0.0-1.0-0.1-1.1,0,0,80,,4377.0,"{""Q0"":""True"",""Q1"":""True"",""Q2"":""Stay the same"",""Q3"":""pointer finger for left and middle finger for right""}",0.0,,,,,,,,,,,,,,,,,,,,,,,,,,,,,,,,,,,,,,,,,
6,,,,html-keyboard-response,6,36300,0.0-1.0-1.0,0,0,80,,2140.0,,,83.0,,,,,,,,,,,,,,,,,,,,,,,,,,,,,,,,,,,,,,,,
7,,choice,,html-keyboard-response,7,37806,0.0-1.0-2.0-0.0-0.0,0,0,80,,,,,,0.0,0.0,1500.0,1000.0,1.0,0.0,0.0,20-80,,0.0,bagel,dumbbell,20.0,80.0,bagel1,dumbbell1,0.0,80.0,bagels_pumpernickel_large.jpg,31B64EN68AL._AA280_.jpg,/static/Category_learning/Stimuli/Practice_stims/bagel/bagels_pumpernickel_large.jpg,/static/Category_learning/Stimuli/Practice_stims/dumbbell/31B64EN68AL._AA280_.jpg,1.0,0.0,1.5,,,,,,,,,,,,,,,
8,,isi,,html-keyboard-response,8,39316,0.0-1.0-2.0-0.0-2.0,0,0,80,,,,,,0.0,,,,,0.0,,,,,,,,,,,,,,,,,,1.5,1.5,,,,,,,,,,,,,,,
9,,no_response,,html-keyboard-response,9,40323,0.0-1.0-2.0-0.0-4.0-0.0,0,0,80,,,,,,0.0,,,,,0.0,,,,,,,,,,,,,,,,,,3.0,1.0,,,,,,,,,,,,,,,
10,,iti,,html-keyboard-response,10,41331,0.0-1.0-2.0-0.0-5.0,0,0,80,,,,,,0.0,,,,,0.0,,,,,,,,,,,,,,,,,,4.0,1.0,,,,,,,,,,,,,,,
11,,choice,,html-keyboard-response,11,41690,0.0-1.0-2.0-0.1-0.1,0,0,80,,355.0,,,50.0,0.0,0.0,1500.0,1000.0,1.0,0.0,0.0,20-80,,0.0,bagel,dumbbell,20.0,80.0,bagel1,dumbbell1,0.0,80.0,bagels_pumpernickel_large.jpg,31B64EN68AL._AA280_.jpg,/static/Category_learning/Stimuli/Practice_stims/bagel/bagels_pumpernickel_large.jpg,/static/Category_learning/Stimuli/Practice_stims/dumbbell/31B64EN68AL._AA280_.jpg,0.0,5.0,0.355,1.0,bagel,dumbbell,20.0,80.0,bagel1,dumbbell1,0.0,80.0,,,,,,
12,,confirmation,,html-keyboard-response,12,42841,0.0-1.0-2.0-0.1-1.1-0.1,0,0,80,,,,,,0.0,,,,,0.0,,,,,,,,,,,,,,,,,,5.355,1.145,,,,,,,,,,,,,,,
13,,isi,,html-keyboard-response,13,44344,0.0-1.0-2.0-0.1-2.1,0,0,80,,,,,,0.0,,,,,0.0,,,,,,,,,,,,,,,,,,6.5,1.5,,,,,,,,,,,,,,,
14,,feedback,,html-keyboard-response,14,45352,0.0-1.0-2.0-0.1-3.1-0.1,0,0,80,,,,,,0.0,,,,,0.0,,,,,,,,,,,,,,,,,,8.0,1.0,,,,,,,,,,,,,,,
15,,iti,,html-keyboard-response,15,46356,0.0-1.0-2.0-0.1-5.1,0,0,80,,,,,,0.0,,,,,0.0,,,,,,,,,,,,,,,,,,9.0,1.0,,,,,,,,,,,,,,,
16,,choice,,html-keyboard-response,16,46704,0.0-1.0-3.0-0.0-0.0,0,0,80,,345.0,,,50.0,1.0,1.0,3000.0,1500.0,1.0,0.0,0.0,20-40,,1.0,calculator,bagel,40.0,20.0,calculator2,bagel2,20.0,20.0,22829064.thl.jpg,bagels_cinnraisin_large.jpg,/static/Category_learning/Stimuli/Practice_stims/calculator/22829064.thl.jpg,/static/Category_learning/Stimuli/Practice_stims/bagel/bagels_cinnraisin_large.jpg,0.0,10.0,0.345,1.0,calculator,bagel,40.0,20.0,calculator2,bagel2,20.0,20.0,,,,,,
17,,confirmation,,html-keyboard-response,17,47865,0.0-1.0-3.0-0.0-1.0-0.0,0,0,80,,,,,,1.0,,,,,0.0,,,,,,,,,,,,,,,,,,10.345,1.155,,,,,,,,,,,,,,,
18,,isi,,html-keyboard-response,18,50873,0.0-1.0-3.0-0.0-2.0,0,0,80,,,,,,1.0,,,,,0.0,,,,,,,,,,,,,,,,,,11.5,3.0,,,,,,,,,,,,,,,
19,,feedback,,html-keyboard-response,19,51881,0.0-1.0-3.0-0.0-3.0-0.0,0,0,80,,,,,,1.0,,,,,0.0,,,,,,,,,,,,,,,,,,14.5,1.0,,,,,,,,,,,,,,,
20,,iti,,html-keyboard-response,20,53384,0.0-1.0-3.0-0.0-5.0,0,0,80,,,,,,1.0,,,,,0.0,,,,,,,,,,,,,,,,,,15.5,1.5,,,,,,,,,,,,,,,
21,,choice,,html-keyboard-response,21,53542,0.0-1.0-4.0-0.0-0.0,0,0,80,,152.0,,,50.0,2.0,2.0,2000.0,3000.0,1.0,0.0,0.0,60-80,,0.0,clock,dumbbell,60.0,80.0,clock2,dumbbell2,60.0,100.0,26373355.thl.jpg,31K8MR6TMBL._SS500_.jpg,/static/Category_learning/Stimuli/Practice_stims/clock/26373355.thl.jpg,/static/Category_learning/Stimuli/Practice_stims/dumbbell/31K8MR6TMBL._SS500_.jpg,0.0,17.0,0.152,1.0,clock,dumbbell,60.0,80.0,clock2,dumbbell2,60.0,100.0,,,,,,
22,,confirmation,,html-keyboard-response,22,54894,0.0-1.0-4.0-0.0-1.0-0.0,0,0,80,,,,,,2.0,,,,,0.0,,,,,,,,,,,,,,,,,,17.152,1.348,,,,,,,,,,,,,,,
23,,isi,,html-keyboard-response,23,56900,0.0-1.0-4.0-0.0-2.0,0,0,80,,,,,,2.0,,,,,0.0,,,,,,,,,,,,,,,,,,18.5,2.0,,,,,,,,,,,,,,,
24,,feedback,,html-keyboard-response,24,57908,0.0-1.0-4.0-0.0-3.0-0.0,0,0,80,,,,,,2.0,,,,,0.0,,,,,,,,,,,,,,,,,,20.5,1.0,,,,,,,,,,,,,,,
25,,iti,,html-keyboard-response,25,60916,0.0-1.0-4.0-0.0-5.0,0,0,80,,,,,,2.0,,,,,0.0,,,,,,,,,,,,,,,,,,21.5,3.0,,,,,,,,,,,,,,,
26,,choice,,html-keyboard-response,26,61116,0.0-1.0-5.0-0.0-0.0,0,0,80,,195.0,,,50.0,3.0,3.0,1000.0,2000.0,1.0,0.0,0.0,40-80,,0.0,calculator,clock,40.0,60.0,calculator1,clock1,40.0,40.0,22829184.thl.jpg,Aalarmclock2.jpg,/static/Category_learning/Stimuli/Practice_stims/calculator/22829184.thl.jpg,/static/Category_learning/Stimuli/Practice_stims/clock/Aalarmclock2.jpg,0.0,24.5,0.195,1.0,calculator,clock,40.0,60.0,calculator1,clock1,40.0,40.0,,,,,,
27,,confirmation,,html-keyboard-response,27,62425,0.0-1.0-5.0-0.0-1.0-0.0,0,0,80,,,,,,3.0,,,,,0.0,,,,,,,,,,,,,,,,,,24.695,1.305,,,,,,,,,,,,,,,
28,,isi,,html-keyboard-response,28,63432,0.0-1.0-5.0-0.0-2.0,0,0,80,,,,,,3.0,,,,,0.0,,,,,,,,,,,,,,,,,,26.0,1.0,,,,,,,,,,,,,,,
29,,feedback,,html-keyboard-response,29,64441,0.0-1.0-5.0-0.0-3.0-0.0,0,0,80,,,,,,3.0,,,,,0.0,,,,,,,,,,,,,,,,,,27.0,1.0,,,,,,,,,,,,,,,
30,,iti,,html-keyboard-response,30,66446,0.0-1.0-5.0-0.0-5.0,0,0,80,,,,,,3.0,,,,,0.0,,,,,,,,,,,,,,,,,,28.0,2.0,,,,,,,,,,,,,,,
31,,choice,,html-keyboard-response,31,66987,0.0-1.0-6.0-0.0-0.0,0,0,80,,536.0,,,50.0,4.0,4.0,2500.0,2500.0,1.0,0.0,0.0,20-60,,1.0,dumbbell,bagel,80.0,20.0,dumbbell3,bagel3,100.0,40.0,41K7QVRX50L._SS500_.jpg,photo-169.jpg,/static/Category_learning/Stimuli/Practice_stims/dumbbell/41K7QVRX50L._SS500_.jpg,/static/Category_learning/Stimuli/Practice_stims/bagel/photo-169.jpg,0.0,30.0,0.536,1.0,dumbbell,bagel,80.0,20.0,dumbbell3,bagel3,100.0,40.0,1.0,,,,,
32,,confirmation,,html-keyboard-response,32,67955,0.0-1.0-6.0-0.0-1.0-0.0,0,0,80,,,,,,4.0,,,,,0.0,,,,,,,,,,,,,,,,,,30.536,0.964,,,,,,,,,,,,,,,
33,,isi,,html-keyboard-response,33,70462,0.0-1.0-6.0-0.0-2.0,0,0,80,,,,,,4.0,,,,,0.0,,,,,,,,,,,,,,,,,,31.5,2.5,,,,,,,,,,,,,,,
34,,feedback,,html-keyboard-response,34,71470,0.0-1.0-6.0-0.0-3.0-0.0,0,0,80,,,,,,4.0,,,,,0.0,,,,,,,,,,,,,,,,,,34.0,1.0,,,,,,,,,,,,,,,
35,,iti,,html-keyboard-response,35,73975,0.0-1.0-6.0-0.0-5.0,0,0,80,,,,,,4.0,,,,,0.0,,,,,,,,,,,,,,,,,,35.0,2.5,,,,,,,,,,,,,,,
36,,practice_over,,html-keyboard-response,36,76290,0.0-1.0-6.0-0.0-6.0-0.0,0,0,80,,2312.0,,,83.0,4.0,,,,,,,,,,,,,,,,,,,,,,,,,,,,,,,,,,,,,,,
37,,start_run,,html-keyboard-response,37,78658,0.0-1.0-6.0-0.0-6.0-1.0,0,0,80,,2366.0,,,84.0,,,,,,,,,,,,,,,,,,,,,,,,,,,,,,,,,,,,,,,,
38,,choice,,html-keyboard-response,38,79547,0.0-1.0-7.0-0.0-0.0,0,0,80,,884.0,,,50.0,5.0,5.0,3000.0,2000.0,0.0,1.0,0.0,40-40,,,license plate,hammer,40.0,40.0,license plate13,hammer11,60.0,60.0,usa-rj-9517.jpg,8oz-hammer-copy.jpg,/static/Category_learning/Stimuli/Experimental_stims/license plate/usa-rj-9517.jpg,/static/Category_learning/Stimuli/Experimental_stims/hammer/8oz-hammer-copy.jpg,0.0,0.0,0.884,1.0,license plate,hammer,40.0,40.0,license plate13,hammer11,60.0,60.0,,,,,,
39,,confirmation,,html-keyboard-response,39,80168,0.0-1.0-7.0-0.0-1.0-0.0,0,0,80,,,,,,5.0,,,,,1.0,,,,,,,,,,,,,,,,,,0.884,0.616,,,,,,,,,,,,,,,
40,,isi,,html-keyboard-response,40,83176,0.0-1.0-7.0-0.0-2.0,0,0,80,,,,,,5.0,,,,,1.0,,,,,,,,,,,,,,,,,,1.5,3.0,,,,,,,,,,,,,,,
41,,feedback,,html-keyboard-response,41,84185,0.0-1.0-7.0-0.0-3.0-0.0,0,0,80,,,,,,5.0,,,,,1.0,,,,,,,,,,,,,,,,,,4.5,1.0,,,,,,,,,,,,,,,
42,,iti,,html-keyboard-response,42,86189,0.0-1.0-7.0-0.0-5.0,0,0,80,,,,,,5.0,,,,,1.0,,,,,,,,,,,,,,,,,,5.5,2.0,,,,,,,,,,,,,,,
43,,choice,,html-keyboard-response,43,86510,0.0-1.0-8.0-0.0-0.0,0,0,80,,318.0,,,51.0,6.0,6.0,1000.0,1000.0,0.0,1.0,0.0,20-60,,0.0,flashlight,poker card,20.0,60.0,flashlight9,poker card6,40.0,80.0,new06.jpg,22864212.thl.jpg,/static/Category_learning/Stimuli/Experimental_stims/flashlight/new06.jpg,/static/Category_learning/Stimuli/Experimental_stims/poker card/22864212.thl.jpg,0.0,7.5,0.318,0.0,poker card,flashlight,60.0,20.0,poker card6,flashlight9,80.0,40.0,,,,,,
44,,confirmation,,html-keyboard-response,44,87697,0.0-1.0-8.0-0.0-1.0-0.0,0,0,80,,,,,,6.0,,,,,1.0,,,,,,,,,,,,,,,,,,7.818,1.182,,,,,,,,,,,,,,,
45,,isi,,html-keyboard-response,45,88702,0.0-1.0-8.0-0.0-2.0,0,0,80,,,,,,6.0,,,,,1.0,,,,,,,,,,,,,,,,,,9.0,1.0,,,,,,,,,,,,,,,
46,,feedback,,html-keyboard-response,46,89710,0.0-1.0-8.0-0.0-3.0-0.0,0,0,80,,,,,,6.0,,,,,1.0,,,,,,,,,,,,,,,,,,10.0,1.0,,,,,,,,,,,,,,,
47,,iti,,html-keyboard-response,47,90714,0.0-1.0-8.0-0.0-5.0,0,0,80,,,,,,6.0,,,,,1.0,,,,,,,,,,,,,,,,,,11.0,1.0,,,,,,,,,,,,,,,
48,,choice,,html-keyboard-response,48,91168,0.0-1.0-9.0-0.0-0.0,0,0,80,,451.0,,,50.0,7.0,7.0,1500.0,3500.0,0.0,1.0,0.0,60-60,,,seashell,nail polish,60.0,60.0,seashell7,nail polish6,60.0,60.0,seashell34.jpg,127_t.jpg,/static/Category_learning/Stimuli/Experimental_stims/seashell/seashell34.jpg,/static/Category_learning/Stimuli/Experimental_stims/nail polish/127_t.jpg,0.0,12.0,0.451,1.0,seashell,nail polish,60.0,60.0,seashell7,nail polish6,60.0,60.0,,,,,,
49,,confirmation,,html-keyboard-response,49,92221,0.0-1.0-9.0-0.0-1.0-0.0,0,0,80,,,,,,7.0,,,,,1.0,,,,,,,,,,,,,,,,,,12.451,1.049,,,,,,,,,,,,,,,
50,,isi,,html-keyboard-response,50,93726,0.0-1.0-9.0-0.0-2.0,0,0,80,,,,,,7.0,,,,,1.0,,,,,,,,,,,,,,,,,,13.5,1.5,,,,,,,,,,,,,,,
51,,feedback,,html-keyboard-response,51,94734,0.0-1.0-9.0-0.0-3.0-0.0,0,0,80,,,,,,7.0,,,,,1.0,,,,,,,,,,,,,,,,,,15.0,1.0,,,,,,,,,,,,,,,
52,,iti,,html-keyboard-response,52,98238,0.0-1.0-9.0-0.0-5.0,0,0,80,,,,,,7.0,,,,,1.0,,,,,,,,,,,,,,,,,,16.0,3.5,,,,,,,,,,,,,,,
53,,choice,,html-keyboard-response,53,98371,0.0-1.0-10.0-0.0-0.0,0,0,80,,128.0,,,50.0,8.0,8.0,1500.0,1000.0,0.0,1.0,0.0,40-80,,1.0,telescope,hat,80.0,40.0,telescope3,hat5,100.0,60.0,41V67SB5NJL._SS500_.jpg,AREDHAT4.jpg,/static/Category_learning/Stimuli/Experimental_stims/telescope/41V67SB5NJL._SS500_.jpg,/static/Category_learning/Stimuli/Experimental_stims/hat/AREDHAT4.jpg,0.0,19.5,0.128,1.0,telescope,hat,80.0,40.0,telescope3,hat5,100.0,60.0,,,,,,
54,,confirmation,,html-keyboard-response,54,99747,0.0-1.0-10.0-0.0-1.0-0.0,0,0,80,,,,,,8.0,,,,,1.0,,,,,,,,,,,,,,,,,,19.628,1.372,,,,,,,,,,,,,,,
55,,isi,,html-keyboard-response,55,101252,0.0-1.0-10.0-0.0-2.0,0,0,80,,,,,,8.0,,,,,1.0,,,,,,,,,,,,,,,,,,21.0,1.5,,,,,,,,,,,,,,,
56,,feedback,,html-keyboard-response,56,102260,0.0-1.0-10.0-0.0-3.0-0.0,0,0,80,,,,,,8.0,,,,,1.0,,,,,,,,,,,,,,,,,,22.5,1.0,,,,,,,,,,,,,,,
57,,iti,,html-keyboard-response,57,103267,0.0-1.0-10.0-0.0-5.0,0,0,80,,,,,,8.0,,,,,1.0,,,,,,,,,,,,,,,,,,23.5,1.0,,,,,,,,,,,,,,,
58,,choice,,html-keyboard-response,58,103675,0.0-1.0-11.0-0.0-0.0,0,0,80,,404.0,,,50.0,9.0,9.0,2000.0,3500.0,0.0,1.0,0.0,40-60,,1.0,power strip,makeup compact,60.0,40.0,power strip12,makeup compact1,80.0,60.0,41CXESEH1TL._AA262_.jpg,P190250_hero.jpg,/static/Category_learning/Stimuli/Experimental_stims/power strip/41CXESEH1TL._AA262_.jpg,/static/Category_learning/Stimuli/Experimental_stims/makeup compact/P190250_hero.jpg,0.0,24.5,0.404,1.0,power strip,makeup compact,60.0,40.0,power strip12,makeup compact1,80.0,60.0,,,,,,
59,,confirmation,,html-keyboard-response,59,104776,0.0-1.0-11.0-0.0-1.0-0.0,0,0,80,,,,,,9.0,,,,,1.0,,,,,,,,,,,,,,,,,,24.904,1.096,,,,,,,,,,,,,,,
60,,isi,,html-keyboard-response,60,106781,0.0-1.0-11.0-0.0-2.0,0,0,80,,,,,,9.0,,,,,1.0,,,,,,,,,,,,,,,,,,26.0,2.0,,,,,,,,,,,,,,,
61,,feedback,,html-keyboard-response,61,107789,0.0-1.0-11.0-0.0-3.0-0.0,0,0,80,,,,,,9.0,,,,,1.0,,,,,,,,,,,,,,,,,,28.0,1.0,,,,,,,,,,,,,,,
62,,iti,,html-keyboard-response,62,111293,0.0-1.0-11.0-0.0-5.0,0,0,80,,,,,,9.0,,,,,1.0,,,,,,,,,,,,,,,,,,29.0,3.5,,,,,,,,,,,,,,,
63,,choice,,html-keyboard-response,63,111802,0.0-1.0-12.0-0.0-0.0,0,0,80,,505.0,,,50.0,10.0,10.0,1500.0,3500.0,0.0,1.0,1.0,60-80,0.0,,telescope,power strip,80.0,60.0,telescope3,power strip12,100.0,80.0,41V67SB5NJL._SS500_.jpg,41CXESEH1TL._AA262_.jpg,/static/Category_learning/Stimuli/Experimental_stims/telescope/41V67SB5NJL._SS500_.jpg,/static/Category_learning/Stimuli/Experimental_stims/power strip/41CXESEH1TL._AA262_.jpg,0.0,32.5,0.505,1.0,telescope,power strip,80.0,60.0,telescope3,power strip12,100.0,80.0,,,,,,
64,,confirmation,,html-keyboard-response,64,112802,0.0-1.0-12.0-0.0-1.0-0.0,0,0,80,,,,,,10.0,,,,,1.0,,,,,,,,,,,,,,,,,,33.005,0.995,,,,,,,,,,,,,,,
65,,isi,,html-keyboard-response,65,114306,0.0-1.0-12.0-0.0-2.0,0,0,80,,,,,,10.0,,,,,1.0,,,,,,,,,,,,,,,,,,34.0,1.5,,,,,,,,,,,,,,,
66,,feedback,,html-keyboard-response,66,115314,0.0-1.0-12.0-0.0-3.0-0.0,0,0,80,,,,,,10.0,,,,,1.0,,,,,,,,,,,,,,,,,,35.5,1.0,,,,,,,,,,,,,,,
67,,iti,,html-keyboard-response,67,118819,0.0-1.0-12.0-0.0-5.0,0,0,80,,,,,,10.0,,,,,1.0,,,,,,,,,,,,,,,,,,36.5,3.5,,,,,,,,,,,,,,,
68,,choice,,html-keyboard-response,68,119338,0.0-1.0-13.0-0.0-0.0,0,0,80,,515.0,,,50.0,11.0,11.0,1500.0,1000.0,0.0,1.0,1.0,40-60,0.0,,license plate,poker card,40.0,60.0,license plate13,poker card6,60.0,80.0,usa-rj-9517.jpg,22864212.thl.jpg,/static/Category_learning/Stimuli/Experimental_stims/license plate/usa-rj-9517.jpg,/static/Category_learning/Stimuli/Experimental_stims/poker card/22864212.thl.jpg,0.0,40.0,0.515,1.0,license plate,poker card,40.0,60.0,license plate13,poker card6,60.0,80.0,,,,,,
69,,confirmation,,html-keyboard-response,69,120329,0.0-1.0-13.0-0.0-1.0-0.0,0,0,80,,,,,,11.0,,,,,1.0,,,,,,,,,,,,,,,,,,40.515,0.985,,,,,,,,,,,,,,,
70,,isi,,html-keyboard-response,70,121832,0.0-1.0-13.0-0.0-2.0,0,0,80,,,,,,11.0,,,,,1.0,,,,,,,,,,,,,,,,,,41.5,1.5,,,,,,,,,,,,,,,
71,,feedback,,html-keyboard-response,71,122839,0.0-1.0-13.0-0.0-3.0-0.0,0,0,80,,,,,,11.0,,,,,1.0,,,,,,,,,,,,,,,,,,43.0,1.0,,,,,,,,,,,,,,,
72,,iti,,html-keyboard-response,72,123843,0.0-1.0-13.0-0.0-5.0,0,0,80,,,,,,11.0,,,,,1.0,,,,,,,,,,,,,,,,,,44.0,1.0,,,,,,,,,,,,,,,
73,,choice,,html-keyboard-response,73,124306,0.0-1.0-14.0-0.0-0.0,0,0,80,,455.0,,,50.0,12.0,12.0,2000.0,1000.0,0.0,1.0,0.0,40-60,,0.0,key chain,sofa,40.0,60.0,key chain13,sofa6,60.0,80.0,Fancy_Liquid_Column_Shape_Key_Ring_with_Floater.jpg,wilkie-sofa-250h-new-cd.jpg,/static/Category_learning/Stimuli/Experimental_stims/key chain/Fancy_Liquid_Column_Shape_Key_Ring_with_Floater.jpg,/static/Category_learning/Stimuli/Experimental_stims/sofa/wilkie-sofa-250h-new-cd.jpg,0.0,45.0,0.455,1.0,key chain,sofa,40.0,60.0,key chain13,sofa6,60.0,80.0,,,,,,
74,,confirmation,,html-keyboard-response,74,125355,0.0-1.0-14.0-0.0-1.0-0.0,0,0,80,,,,,,12.0,,,,,1.0,,,,,,,,,,,,,,,,,,45.455,1.045,,,,,,,,,,,,,,,
75,,isi,,html-keyboard-response,75,127362,0.0-1.0-14.0-0.0-2.0,0,0,80,,,,,,12.0,,,,,1.0,,,,,,,,,,,,,,,,,,46.5,2.0,,,,,,,,,,,,,,,
76,,feedback,,html-keyboard-response,76,128370,0.0-1.0-14.0-0.0-3.0-0.0,0,0,80,,,,,,12.0,,,,,1.0,,,,,,,,,,,,,,,,,,48.5,1.0,,,,,,,,,,,,,,,
77,,iti,,html-keyboard-response,77,129372,0.0-1.0-14.0-0.0-5.0,0,0,80,,,,,,12.0,,,,,1.0,,,,,,,,,,,,,,,,,,49.5,1.0,,,,,,,,,,,,,,,
78,,choice,,html-keyboard-response,78,129443,0.0-1.0-15.0-0.0-0.0,0,0,80,,68.0,,,50.0,13.0,13.0,1000.0,1000.0,0.0,1.0,0.0,40-80,,1.0,stool,motorcycle,80.0,40.0,stool7,motorcycle7,80.0,20.0,ASTOOL25.jpg,MotoSmall.jpg,/static/Category_learning/Stimuli/Experimental_stims/stool/ASTOOL25.jpg,/static/Category_learning/Stimuli/Experimental_stims/motorcycle/MotoSmall.jpg,0.0,50.5,0.068,1.0,stool,motorcycle,80.0,40.0,stool7,motorcycle7,80.0,20.0,,,,,,
79,,confirmation,,html-keyboard-response,79,130878,0.0-1.0-15.0-0.0-1.0-0.0,0,0,80,,,,,,13.0,,,,,1.0,,,,,,,,,,,,,,,,,,50.568,1.432,,,,,,,,,,,,,,,
80,,isi,,html-keyboard-response,80,131884,0.0-1.0-15.0-0.0-2.0,0,0,80,,,,,,13.0,,,,,1.0,,,,,,,,,,,,,,,,,,52.0,1.0,,,,,,,,,,,,,,,
81,,feedback,,html-keyboard-response,81,132891,0.0-1.0-15.0-0.0-3.0-0.0,0,0,80,,,,,,13.0,,,,,1.0,,,,,,,,,,,,,,,,,,53.0,1.0,,,,,,,,,,,,,,,
82,,iti,,html-keyboard-response,82,133898,0.0-1.0-15.0-0.0-5.0,0,0,80,,,,,,13.0,,,,,1.0,,,,,,,,,,,,,,,,,,54.0,1.0,,,,,,,,,,,,,,,
83,,choice,,html-keyboard-response,83,134114,0.0-1.0-16.0-0.0-0.0,0,0,80,,212.0,,,50.0,14.0,14.0,1500.0,1000.0,0.0,1.0,0.0,40-80,,1.0,tent,hat,80.0,40.0,tent1,hat13,100.0,20.0,Atent8.jpg,Ahatwithfeath.jpg,/static/Category_learning/Stimuli/Experimental_stims/tent/Atent8.jpg,/static/Category_learning/Stimuli/Experimental_stims/hat/Ahatwithfeath.jpg,0.0,55.0,0.212,1.0,tent,hat,80.0,40.0,tent1,hat13,100.0,20.0,,,,,,
84,,confirmation,,html-keyboard-response,84,135406,0.0-1.0-16.0-0.0-1.0-0.0,0,0,80,,,,,,14.0,,,,,1.0,,,,,,,,,,,,,,,,,,55.212,1.288,,,,,,,,,,,,,,,
85,,isi,,html-keyboard-response,85,136911,0.0-1.0-16.0-0.0-2.0,0,0,80,,,,,,14.0,,,,,1.0,,,,,,,,,,,,,,,,,,56.5,1.5,,,,,,,,,,,,,,,
86,,feedback,,html-keyboard-response,86,137914,0.0-1.0-16.0-0.0-3.0-0.0,0,0,80,,,,,,14.0,,,,,1.0,,,,,,,,,,,,,,,,,,58.0,1.0,,,,,,,,,,,,,,,
87,,iti,,html-keyboard-response,87,138920,0.0-1.0-16.0-0.0-5.0,0,0,80,,,,,,14.0,,,,,1.0,,,,,,,,,,,,,,,,,,59.0,1.0,,,,,,,,,,,,,,,
88,,choice,,html-keyboard-response,88,139650,0.0-1.0-17.0-0.0-0.0,0,0,80,,726.0,,,50.0,15.0,15.0,2000.0,1000.0,0.0,1.0,0.0,60-80,,0.0,necklace,watch,60.0,80.0,necklace3,watch13,60.0,80.0,26388201.thl.jpg,RS_3104_lrg.jpg,/static/Category_learning/Stimuli/Experimental_stims/necklace/26388201.thl.jpg,/static/Category_learning/Stimuli/Experimental_stims/watch/RS_3104_lrg.jpg,0.0,60.0,0.726,1.0,necklace,watch,60.0,80.0,necklace3,watch13,60.0,80.0,,,,,,
89,,confirmation,,html-keyboard-response,89,140429,0.0-1.0-17.0-0.0-1.0-0.0,0,0,80,,,,,,15.0,,,,,1.0,,,,,,,,,,,,,,,,,,60.726,0.774,,,,,,,,,,,,,,,
90,,isi,,html-keyboard-response,90,142433,0.0-1.0-17.0-0.0-2.0,0,0,80,,,,,,15.0,,,,,1.0,,,,,,,,,,,,,,,,,,61.5,2.0,,,,,,,,,,,,,,,
91,,feedback,,html-keyboard-response,91,143438,0.0-1.0-17.0-0.0-3.0-0.0,0,0,80,,,,,,15.0,,,,,1.0,,,,,,,,,,,,,,,,,,63.5,1.0,,,,,,,,,,,,,,,
92,,iti,,html-keyboard-response,92,144446,0.0-1.0-17.0-0.0-5.0,0,0,80,,,,,,15.0,,,,,1.0,,,,,,,,,,,,,,,,,,64.5,1.0,,,,,,,,,,,,,,,
93,,choice,,html-keyboard-response,93,145114,0.0-1.0-18.0-0.0-0.0,0,0,80,,664.0,,,50.0,16.0,16.0,3500.0,1000.0,0.0,1.0,1.0,60-80,0.0,,tent,necklace,80.0,60.0,tent1,necklace3,100.0,60.0,Atent8.jpg,26388201.thl.jpg,/static/Category_learning/Stimuli/Experimental_stims/tent/Atent8.jpg,/static/Category_learning/Stimuli/Experimental_stims/necklace/26388201.thl.jpg,0.0,65.5,0.664,1.0,tent,necklace,80.0,60.0,tent1,necklace3,100.0,60.0,,,,,,
94,,confirmation,,html-keyboard-response,94,145956,0.0-1.0-18.0-0.0-1.0-0.0,0,0,80,,,,,,16.0,,,,,1.0,,,,,,,,,,,,,,,,,,66.164,0.836,,,,,,,,,,,,,,,
95,,isi,,html-keyboard-response,95,149460,0.0-1.0-18.0-0.0-2.0,0,0,80,,,,,,16.0,,,,,1.0,,,,,,,,,,,,,,,,,,67.0,3.5,,,,,,,,,,,,,,,
96,,feedback,,html-keyboard-response,96,150467,0.0-1.0-18.0-0.0-3.0-0.0,0,0,80,,,,,,16.0,,,,,1.0,,,,,,,,,,,,,,,,,,70.5,1.0,,,,,,,,,,,,,,,
97,,iti,,html-keyboard-response,97,151476,0.0-1.0-18.0-0.0-5.0,0,0,80,,,,,,16.0,,,,,1.0,,,,,,,,,,,,,,,,,,71.5,1.0,,,,,,,,,,,,,,,
98,,choice,,html-keyboard-response,98,151675,0.0-1.0-19.0-0.0-0.0,0,0,80,,193.0,,,50.0,17.0,17.0,3500.0,2000.0,0.0,1.0,0.0,20-20,,,flashlight,bowl,20.0,20.0,flashlight5,bowl12,0.0,20.0,Streamlight-71001-Jr-Flashlight-W-batteries-black-B00018A3CG-L.jpg,Abowl52.jpg,/static/Category_learning/Stimuli/Experimental_stims/flashlight/Streamlight-71001-Jr-Flashlight-W-batteries-black-B00018A3CG-L.jpg,/static/Category_learning/Stimuli/Experimental_stims/bowl/Abowl52.jpg,0.0,72.5,0.193,1.0,flashlight,bowl,20.0,20.0,flashlight5,bowl12,0.0,20.0,,,,,,
99,,confirmation,,html-keyboard-response,99,152987,0.0-1.0-19.0-0.0-1.0-0.0,0,0,80,,,,,,17.0,,,,,1.0,,,,,,,,,,,,,,,,,,72.693,1.307,,,,,,,,,,,,,,,
100,,isi,,html-keyboard-response,100,156494,0.0-1.0-19.0-0.0-2.0,0,0,80,,,,,,17.0,,,,,1.0,,,,,,,,,,,,,,,,,,74.0,3.5,,,,,,,,,,,,,,,
101,,feedback,,html-keyboard-response,101,157502,0.0-1.0-19.0-0.0-3.0-0.0,0,0,80,,,,,,17.0,,,,,1.0,,,,,,,,,,,,,,,,,,77.5,1.0,,,,,,,,,,,,,,,
102,,iti,,html-keyboard-response,102,159508,0.0-1.0-19.0-0.0-5.0,0,0,80,,,,,,17.0,,,,,1.0,,,,,,,,,,,,,,,,,,78.5,2.0,,,,,,,,,,,,,,,
103,,choice,,html-keyboard-response,103,159681,0.0-1.0-20.0-0.0-0.0,0,0,80,,170.0,,,50.0,18.0,18.0,1500.0,1500.0,0.0,1.0,1.0,20-60,0.0,,flashlight,seashell,20.0,60.0,flashlight5,seashell7,0.0,60.0,Streamlight-71001-Jr-Flashlight-W-batteries-black-B00018A3CG-L.jpg,seashell34.jpg,/static/Category_learning/Stimuli/Experimental_stims/flashlight/Streamlight-71001-Jr-Flashlight-W-batteries-black-B00018A3CG-L.jpg,/static/Category_learning/Stimuli/Experimental_stims/seashell/seashell34.jpg,0.0,80.5,0.17,1.0,flashlight,seashell,20.0,60.0,flashlight5,seashell7,0.0,60.0,,,,,,
104,,confirmation,,html-keyboard-response,104,161017,0.0-1.0-20.0-0.0-1.0-0.0,0,0,80,,,,,,18.0,,,,,1.0,,,,,,,,,,,,,,,,,,80.67,1.33,,,,,,,,,,,,,,,
105,,isi,,html-keyboard-response,105,162521,0.0-1.0-20.0-0.0-2.0,0,0,80,,,,,,18.0,,,,,1.0,,,,,,,,,,,,,,,,,,82.0,1.5,,,,,,,,,,,,,,,
106,,feedback,,html-keyboard-response,106,163529,0.0-1.0-20.0-0.0-3.0-0.0,0,0,80,,,,,,18.0,,,,,1.0,,,,,,,,,,,,,,,,,,83.5,1.0,,,,,,,,,,,,,,,
107,,iti,,html-keyboard-response,107,165034,0.0-1.0-20.0-0.0-5.0,0,0,80,,,,,,18.0,,,,,1.0,,,,,,,,,,,,,,,,,,84.5,1.5,,,,,,,,,,,,,,,
108,,choice,,html-keyboard-response,108,166122,0.0-1.0-21.0-0.0-0.0,0,0,80,,1084.0,,,50.0,19.0,19.0,1000.0,2000.0,0.0,1.0,0.0,40-40,,,frame,license plate,40.0,40.0,frame8,license plate14,60.0,40.0,AFRAME154.jpg,fl-hel-bel.jpg,/static/Category_learning/Stimuli/Experimental_stims/frame/AFRAME154.jpg,/static/Category_learning/Stimuli/Experimental_stims/license plate/fl-hel-bel.jpg,0.0,86.0,1.084,1.0,frame,license plate,40.0,40.0,frame8,license plate14,60.0,40.0,,,,,,
109,,confirmation,,html-keyboard-response,109,166544,0.0-1.0-21.0-0.0-1.0-0.0,0,0,80,,,,,,19.0,,,,,1.0,,,,,,,,,,,,,,,,,,87.084,0.416,,,,,,,,,,,,,,,
110,,isi,,html-keyboard-response,110,167547,0.0-1.0-21.0-0.0-2.0,0,0,80,,,,,,19.0,,,,,1.0,,,,,,,,,,,,,,,,,,87.5,1.0,,,,,,,,,,,,,,,
111,,feedback,,html-keyboard-response,111,168552,0.0-1.0-21.0-0.0-3.0-0.0,0,0,80,,,,,,19.0,,,,,1.0,,,,,,,,,,,,,,,,,,88.5,1.0,,,,,,,,,,,,,,,
112,,iti,,html-keyboard-response,112,170556,0.0-1.0-21.0-0.0-5.0,0,0,80,,,,,,19.0,,,,,1.0,,,,,,,,,,,,,,,,,,89.5,2.0,,,,,,,,,,,,,,,
113,,choice,,html-keyboard-response,113,170738,0.0-1.0-22.0-0.0-0.0,0,0,80,,178.0,,,50.0,20.0,20.0,1000.0,1000.0,0.0,1.0,0.0,20-80,,1.0,vase,desk,80.0,20.0,vase3,desk14,80.0,0.0,vase-006af-1.jpg,26419960.thl.jpg,/static/Category_learning/Stimuli/Experimental_stims/vase/vase-006af-1.jpg,/static/Category_learning/Stimuli/Experimental_stims/desk/26419960.thl.jpg,0.0,91.5,0.178,1.0,vase,desk,80.0,20.0,vase3,desk14,80.0,0.0,,,,,,
114,,confirmation,,html-keyboard-response,114,172064,0.0-1.0-22.0-0.0-1.0-0.0,0,0,80,,,,,,20.0,,,,,1.0,,,,,,,,,,,,,,,,,,91.678,1.322,,,,,,,,,,,,,,,
115,,isi,,html-keyboard-response,115,173070,0.0-1.0-22.0-0.0-2.0,0,0,80,,,,,,20.0,,,,,1.0,,,,,,,,,,,,,,,,,,93.0,1.0,,,,,,,,,,,,,,,
116,,feedback,,html-keyboard-response,116,174077,0.0-1.0-22.0-0.0-3.0-0.0,0,0,80,,,,,,20.0,,,,,1.0,,,,,,,,,,,,,,,,,,94.0,1.0,,,,,,,,,,,,,,,
117,,iti,,html-keyboard-response,117,175086,0.0-1.0-22.0-0.0-5.0,0,0,80,,,,,,20.0,,,,,1.0,,,,,,,,,,,,,,,,,,95.0,1.0,,,,,,,,,,,,,,,
118,,choice,,html-keyboard-response,118,175137,0.0-1.0-23.0-0.0-0.0,0,0,80,,48.0,,,50.0,21.0,21.0,1500.0,2000.0,0.0,1.0,0.0,40-60,,1.0,power strip,frame,60.0,40.0,power strip5,frame1,40.0,20.0,93e4a283-bcd6-4ad1-8add-339658cda0fc_400.jpg,AFRAME127.jpg,/static/Category_learning/Stimuli/Experimental_stims/power strip/93e4a283-bcd6-4ad1-8add-339658cda0fc_400.jpg,/static/Category_learning/Stimuli/Experimental_stims/frame/AFRAME127.jpg,0.0,96.0,0.048,1.0,power strip,frame,60.0,40.0,power strip5,frame1,40.0,20.0,,,,,,
119,,confirmation,,html-keyboard-response,119,176594,0.0-1.0-23.0-0.0-1.0-0.0,0,0,80,,,,,,21.0,,,,,1.0,,,,,,,,,,,,,,,,,,96.048,1.452,,,,,,,,,,,,,,,
120,,isi,,html-keyboard-response,120,178102,0.0-1.0-23.0-0.0-2.0,0,0,80,,,,,,21.0,,,,,1.0,,,,,,,,,,,,,,,,,,97.5,1.5,,,,,,,,,,,,,,,
121,,feedback,,html-keyboard-response,121,179111,0.0-1.0-23.0-0.0-3.0-0.0,0,0,80,,,,,,21.0,,,,,1.0,,,,,,,,,,,,,,,,,,99.0,1.0,,,,,,,,,,,,,,,
122,,iti,,html-keyboard-response,122,181118,0.0-1.0-23.0-0.0-5.0,0,0,80,,,,,,21.0,,,,,1.0,,,,,,,,,,,,,,,,,,100.0,2.0,,,,,,,,,,,,,,,
123,,choice,,html-keyboard-response,123,181328,0.0-1.0-24.0-0.0-0.0,0,0,80,,206.0,,,50.0,22.0,22.0,2000.0,1000.0,0.0,1.0,1.0,40-40,0.0,,frame,key chain,40.0,40.0,frame8,key chain13,60.0,60.0,AFRAME154.jpg,Fancy_Liquid_Column_Shape_Key_Ring_with_Floater.jpg,/static/Category_learning/Stimuli/Experimental_stims/frame/AFRAME154.jpg,/static/Category_learning/Stimuli/Experimental_stims/key chain/Fancy_Liquid_Column_Shape_Key_Ring_with_Floater.jpg,0.0,102.0,0.206,1.0,frame,key chain,40.0,40.0,frame8,key chain13,60.0,60.0,,,,,,
124,,confirmation,,html-keyboard-response,124,182628,0.0-1.0-24.0-0.0-1.0-0.0,0,0,80,,,,,,22.0,,,,,1.0,,,,,,,,,,,,,,,,,,102.206,1.294,,,,,,,,,,,,,,,
125,,isi,,html-keyboard-response,125,184632,0.0-1.0-24.0-0.0-2.0,0,0,80,,,,,,22.0,,,,,1.0,,,,,,,,,,,,,,,,,,103.5,2.0,,,,,,,,,,,,,,,
126,,feedback,,html-keyboard-response,126,185640,0.0-1.0-24.0-0.0-3.0-0.0,0,0,80,,,,,,22.0,,,,,1.0,,,,,,,,,,,,,,,,,,105.5,1.0,,,,,,,,,,,,,,,
127,,iti,,html-keyboard-response,127,186644,0.0-1.0-24.0-0.0-5.0,0,0,80,,,,,,22.0,,,,,1.0,,,,,,,,,,,,,,,,,,106.5,1.0,,,,,,,,,,,,,,,
128,,choice,,html-keyboard-response,128,186970,0.0-1.0-25.0-0.0-0.0,0,0,80,,322.0,,,50.0,23.0,23.0,1000.0,1000.0,0.0,1.0,0.0,40-60,,0.0,lipstick,small table,40.0,60.0,lipstick7,small table5,60.0,80.0,P101401_hero.jpg,Atable145.jpg,/static/Category_learning/Stimuli/Experimental_stims/lipstick/P101401_hero.jpg,/static/Category_learning/Stimuli/Experimental_stims/small table/Atable145.jpg,0.0,107.5,0.322,1.0,lipstick,small table,40.0,60.0,lipstick7,small table5,60.0,80.0,,,,,,
129,,confirmation,,html-keyboard-response,129,188153,0.0-1.0-25.0-0.0-1.0-0.0,0,0,80,,,,,,23.0,,,,,1.0,,,,,,,,,,,,,,,,,,107.822,1.178,,,,,,,,,,,,,,,
130,,isi,,html-keyboard-response,130,189160,0.0-1.0-25.0-0.0-2.0,0,0,80,,,,,,23.0,,,,,1.0,,,,,,,,,,,,,,,,,,109.0,1.0,,,,,,,,,,,,,,,
131,,feedback,,html-keyboard-response,131,190169,0.0-1.0-25.0-0.0-3.0-0.0,0,0,80,,,,,,23.0,,,,,1.0,,,,,,,,,,,,,,,,,,110.0,1.0,,,,,,,,,,,,,,,
132,,iti,,html-keyboard-response,132,191175,0.0-1.0-25.0-0.0-5.0,0,0,80,,,,,,23.0,,,,,1.0,,,,,,,,,,,,,,,,,,111.0,1.0,,,,,,,,,,,,,,,
133,,choice,,html-keyboard-response,133,191482,0.0-1.0-26.0-0.0-0.0,0,0,80,,303.0,,,50.0,24.0,24.0,3000.0,1500.0,0.0,1.0,0.0,20-80,,1.0,yarn,bowl,80.0,20.0,yarn4,bowl6,60.0,20.0,amethyst dreaming boho hy sml.jpg,Abowl59.jpg,/static/Category_learning/Stimuli/Experimental_stims/yarn/amethyst dreaming boho hy sml.jpg,/static/Category_learning/Stimuli/Experimental_stims/bowl/Abowl59.jpg,0.0,112.0,0.303,1.0,yarn,bowl,80.0,20.0,yarn4,bowl6,60.0,20.0,,,,,,
134,,confirmation,,html-keyboard-response,134,192683,0.0-1.0-26.0-0.0-1.0-0.0,0,0,80,,,,,,24.0,,,,,1.0,,,,,,,,,,,,,,,,,,112.303,1.197,,,,,,,,,,,,,,,
135,,isi,,html-keyboard-response,135,195692,0.0-1.0-26.0-0.0-2.0,0,0,80,,,,,,24.0,,,,,1.0,,,,,,,,,,,,,,,,,,113.5,3.0,,,,,,,,,,,,,,,
136,,feedback,,html-keyboard-response,136,196697,0.0-1.0-26.0-0.0-3.0-0.0,0,0,80,,,,,,24.0,,,,,1.0,,,,,,,,,,,,,,,,,,116.5,1.0,,,,,,,,,,,,,,,
137,,iti,,html-keyboard-response,137,198201,0.0-1.0-26.0-0.0-5.0,0,0,80,,,,,,24.0,,,,,1.0,,,,,,,,,,,,,,,,,,117.5,1.5,,,,,,,,,,,,,,,
138,,choice,,html-keyboard-response,138,198458,0.0-1.0-27.0-0.0-0.0,0,0,80,,253.0,,,50.0,25.0,25.0,1000.0,2000.0,0.0,1.0,0.0,80-80,,,watch,trumpet,80.0,80.0,watch10,trumpet9,100.0,80.0,HEU0102124_zoom.jpg,trumpet3.jpg,/static/Category_learning/Stimuli/Experimental_stims/watch/HEU0102124_zoom.jpg,/static/Category_learning/Stimuli/Experimental_stims/trumpet/trumpet3.jpg,0.0,119.0,0.253,1.0,watch,trumpet,80.0,80.0,watch10,trumpet9,100.0,80.0,,,,,,
139,,confirmation,,html-keyboard-response,139,199709,0.0-1.0-27.0-0.0-1.0-0.0,0,0,80,,,,,,25.0,,,,,1.0,,,,,,,,,,,,,,,,,,119.253,1.247,,,,,,,,,,,,,,,
140,,isi,,html-keyboard-response,140,200713,0.0-1.0-27.0-0.0-2.0,0,0,80,,,,,,25.0,,,,,1.0,,,,,,,,,,,,,,,,,,120.5,1.0,,,,,,,,,,,,,,,
141,,feedback,,html-keyboard-response,141,201716,0.0-1.0-27.0-0.0-3.0-0.0,0,0,80,,,,,,25.0,,,,,1.0,,,,,,,,,,,,,,,,,,121.5,1.0,,,,,,,,,,,,,,,
142,,iti,,html-keyboard-response,142,203724,0.0-1.0-27.0-0.0-5.0,0,0,80,,,,,,25.0,,,,,1.0,,,,,,,,,,,,,,,,,,122.5,2.0,,,,,,,,,,,,,,,
143,,choice,,html-keyboard-response,143,204115,0.0-1.0-28.0-0.0-0.0,0,0,80,,387.0,,,50.0,26.0,26.0,2000.0,1000.0,0.0,1.0,1.0,80-80,0.0,,watch,yarn,80.0,80.0,watch10,yarn4,100.0,60.0,HEU0102124_zoom.jpg,amethyst dreaming boho hy sml.jpg,/static/Category_learning/Stimuli/Experimental_stims/watch/HEU0102124_zoom.jpg,/static/Category_learning/Stimuli/Experimental_stims/yarn/amethyst dreaming boho hy sml.jpg,0.0,124.5,0.387,1.0,watch,yarn,80.0,80.0,watch10,yarn4,100.0,60.0,,,,,,
144,,confirmation,,html-keyboard-response,144,205232,0.0-1.0-28.0-0.0-1.0-0.0,0,0,80,,,,,,26.0,,,,,1.0,,,,,,,,,,,,,,,,,,124.887,1.113,,,,,,,,,,,,,,,
145,,isi,,html-keyboard-response,145,207235,0.0-1.0-28.0-0.0-2.0,0,0,80,,,,,,26.0,,,,,1.0,,,,,,,,,,,,,,,,,,126.0,2.0,,,,,,,,,,,,,,,
146,,feedback,,html-keyboard-response,146,208244,0.0-1.0-28.0-0.0-3.0-0.0,0,0,80,,,,,,26.0,,,,,1.0,,,,,,,,,,,,,,,,,,128.0,1.0,,,,,,,,,,,,,,,
147,,iti,,html-keyboard-response,147,209248,0.0-1.0-28.0-0.0-5.0,0,0,80,,,,,,26.0,,,,,1.0,,,,,,,,,,,,,,,,,,129.0,1.0,,,,,,,,,,,,,,,
148,,choice,,html-keyboard-response,148,209489,0.0-1.0-29.0-0.0-0.0,0,0,80,,237.0,,,50.0,27.0,27.0,3000.0,1500.0,0.0,1.0,0.0,80-80,,,stool,yarn,80.0,80.0,stool12,yarn7,80.0,100.0,henrybar_stool1.jpg,herb garden hy smaller.jpg,/static/Category_learning/Stimuli/Experimental_stims/stool/henrybar_stool1.jpg,/static/Category_learning/Stimuli/Experimental_stims/yarn/herb garden hy smaller.jpg,0.0,130.0,0.237,1.0,stool,yarn,80.0,80.0,stool12,yarn7,80.0,100.0,,,,,,
149,,confirmation,,html-keyboard-response,149,210755,0.0-1.0-29.0-0.0-1.0-0.0,0,0,80,,,,,,27.0,,,,,1.0,,,,,,,,,,,,,,,,,,130.237,1.263,,,,,,,,,,,,,,,
150,,isi,,html-keyboard-response,150,213763,0.0-1.0-29.0-0.0-2.0,0,0,80,,,,,,27.0,,,,,1.0,,,,,,,,,,,,,,,,,,131.5,3.0,,,,,,,,,,,,,,,
151,,feedback,,html-keyboard-response,151,214771,0.0-1.0-29.0-0.0-3.0-0.0,0,0,80,,,,,,27.0,,,,,1.0,,,,,,,,,,,,,,,,,,134.5,1.0,,,,,,,,,,,,,,,
152,,iti,,html-keyboard-response,152,216280,0.0-1.0-29.0-0.0-5.0,0,0,80,,,,,,27.0,,,,,1.0,,,,,,,,,,,,,,,,,,135.5,1.5,,,,,,,,,,,,,,,
153,,choice,,html-keyboard-response,153,217075,0.0-1.0-30.0-0.0-0.0,0,0,80,,792.0,,,50.0,28.0,28.0,2000.0,1500.0,0.0,1.0,0.0,40-60,,1.0,patio lounge chair,makeup compact,60.0,40.0,patio lounge chair6,makeup compact5,60.0,60.0,Lounge_Chair_with_Pillow.jpg,P109965_hero.jpg,/static/Category_learning/Stimuli/Experimental_stims/patio lounge chair/Lounge_Chair_with_Pillow.jpg,/static/Category_learning/Stimuli/Experimental_stims/makeup compact/P109965_hero.jpg,0.0,137.0,0.792,1.0,patio lounge chair,makeup compact,60.0,40.0,patio lounge chair6,makeup compact5,60.0,60.0,,,,,,
154,,confirmation,,html-keyboard-response,154,217788,0.0-1.0-30.0-0.0-1.0-0.0,0,0,80,,,,,,28.0,,,,,1.0,,,,,,,,,,,,,,,,,,137.792,0.708,,,,,,,,,,,,,,,
155,,isi,,html-keyboard-response,155,219792,0.0-1.0-30.0-0.0-2.0,0,0,80,,,,,,28.0,,,,,1.0,,,,,,,,,,,,,,,,,,138.5,2.0,,,,,,,,,,,,,,,
156,,feedback,,html-keyboard-response,156,220798,0.0-1.0-30.0-0.0-3.0-0.0,0,0,80,,,,,,28.0,,,,,1.0,,,,,,,,,,,,,,,,,,140.5,1.0,,,,,,,,,,,,,,,
157,,iti,,html-keyboard-response,157,222302,0.0-1.0-30.0-0.0-5.0,0,0,80,,,,,,28.0,,,,,1.0,,,,,,,,,,,,,,,,,,141.5,1.5,,,,,,,,,,,,,,,
158,,choice,,html-keyboard-response,158,223283,0.0-1.0-31.0-0.0-0.0,0,0,80,,977.0,,,50.0,29.0,29.0,1000.0,3500.0,0.0,1.0,0.0,40-80,,0.0,license plate,tape,40.0,80.0,license plate12,tape7,20.0,80.0,TurtleLicensePlate.jpg,tape dispenser.jpg,/static/Category_learning/Stimuli/Experimental_stims/license plate/TurtleLicensePlate.jpg,/static/Category_learning/Stimuli/Experimental_stims/tape/tape dispenser.jpg,0.0,143.0,0.977,1.0,license plate,tape,40.0,80.0,license plate12,tape7,20.0,80.0,,,,,,
159,,confirmation,,html-keyboard-response,159,223811,0.0-1.0-31.0-0.0-1.0-0.0,0,0,80,,,,,,29.0,,,,,1.0,,,,,,,,,,,,,,,,,,143.977,0.523,,,,,,,,,,,,,,,
160,,isi,,html-keyboard-response,160,224815,0.0-1.0-31.0-0.0-2.0,0,0,80,,,,,,29.0,,,,,1.0,,,,,,,,,,,,,,,,,,144.5,1.0,,,,,,,,,,,,,,,
161,,feedback,,html-keyboard-response,161,225819,0.0-1.0-31.0-0.0-3.0-0.0,0,0,80,,,,,,29.0,,,,,1.0,,,,,,,,,,,,,,,,,,145.5,1.0,,,,,,,,,,,,,,,
162,,iti,,html-keyboard-response,162,229326,0.0-1.0-31.0-0.0-5.0,0,0,80,,,,,,29.0,,,,,1.0,,,,,,,,,,,,,,,,,,146.5,3.5,,,,,,,,,,,,,,,
163,,choice,,html-keyboard-response,163,230090,0.0-1.0-32.0-0.0-0.0,0,0,80,,760.0,,,50.0,30.0,30.0,1000.0,1000.0,0.0,1.0,0.0,20-80,,0.0,desk,yarn,20.0,80.0,desk10,yarn3,20.0,100.0,MEX028.jpg,Aballofblueya.jpg,/static/Category_learning/Stimuli/Experimental_stims/desk/MEX028.jpg,/static/Category_learning/Stimuli/Experimental_stims/yarn/Aballofblueya.jpg,0.0,150.0,0.76,1.0,desk,yarn,20.0,80.0,desk10,yarn3,20.0,100.0,,,,,,
164,,confirmation,,html-keyboard-response,164,230834,0.0-1.0-32.0-0.0-1.0-0.0,0,0,80,,,,,,30.0,,,,,1.0,,,,,,,,,,,,,,,,,,150.76,0.74,,,,,,,,,,,,,,,
165,,isi,,html-keyboard-response,165,231842,0.0-1.0-32.0-0.0-2.0,0,0,80,,,,,,30.0,,,,,1.0,,,,,,,,,,,,,,,,,,151.5,1.0,,,,,,,,,,,,,,,
166,,feedback,,html-keyboard-response,166,232848,0.0-1.0-32.0-0.0-3.0-0.0,0,0,80,,,,,,30.0,,,,,1.0,,,,,,,,,,,,,,,,,,152.5,1.0,,,,,,,,,,,,,,,
167,,iti,,html-keyboard-response,167,233853,0.0-1.0-32.0-0.0-5.0,0,0,80,,,,,,30.0,,,,,1.0,,,,,,,,,,,,,,,,,,153.5,1.0,,,,,,,,,,,,,,,
168,,choice,,html-keyboard-response,168,233906,0.0-1.0-33.0-0.0-0.0,0,0,80,,49.0,,,50.0,31.0,31.0,1500.0,3000.0,0.0,1.0,0.0,20-60,,0.0,fan,poker card,20.0,60.0,fan14,poker card15,40.0,40.0,124771_sk_lg.jpg,9816946.thl.jpg,/static/Category_learning/Stimuli/Experimental_stims/fan/124771_sk_lg.jpg,/static/Category_learning/Stimuli/Experimental_stims/poker card/9816946.thl.jpg,0.0,154.5,0.049,1.0,fan,poker card,20.0,60.0,fan14,poker card15,40.0,40.0,,,,,,
169,,confirmation,,html-keyboard-response,169,235362,0.0-1.0-33.0-0.0-1.0-0.0,0,0,80,,,,,,31.0,,,,,1.0,,,,,,,,,,,,,,,,,,154.549,1.451,,,,,,,,,,,,,,,
170,,isi,,html-keyboard-response,170,236867,0.0-1.0-33.0-0.0-2.0,0,0,80,,,,,,31.0,,,,,1.0,,,,,,,,,,,,,,,,,,156.0,1.5,,,,,,,,,,,,,,,
171,,feedback,,html-keyboard-response,171,237875,0.0-1.0-33.0-0.0-3.0-0.0,0,0,80,,,,,,31.0,,,,,1.0,,,,,,,,,,,,,,,,,,157.5,1.0,,,,,,,,,,,,,,,
172,,iti,,html-keyboard-response,172,240882,0.0-1.0-33.0-0.0-5.0,0,0,80,,,,,,31.0,,,,,1.0,,,,,,,,,,,,,,,,,,158.5,3.0,,,,,,,,,,,,,,,
173,,choice,,html-keyboard-response,173,242388,0.0-1.0-34.0-0.0-0.0,0,0,80,,,,,,32.0,32.0,2000.0,2000.0,0.0,1.0,0.0,60-80,,0.0,nail polish,tape,60.0,80.0,nail polish11,tape10,80.0,60.0,Revlon_Super_Top_Speed_Chrome_Nail_Polish-resized200.jpg,26377601.thl.jpg,/static/Category_learning/Stimuli/Experimental_stims/nail polish/Revlon_Super_Top_Speed_Chrome_Nail_Polish-resized200.jpg,/static/Category_learning/Stimuli/Experimental_stims/tape/26377601.thl.jpg,1.0,161.5,1.5,,,,,,,,,,,,,,,
174,,isi,,html-keyboard-response,174,244393,0.0-1.0-34.0-0.0-2.0,0,0,80,,,,,,32.0,,,,,1.0,,,,,,,,,,,,,,,,,,163.0,2.0,,,,,,,,,,,,,,,
175,,no_response,,html-keyboard-response,175,245400,0.0-1.0-34.0-0.0-4.0-0.0,0,0,80,,,,,,32.0,,,,,1.0,,,,,,,,,,,,,,,,,,165.0,1.0,,,,,,,,,,,,,,,
176,,iti,,html-keyboard-response,176,247428,0.0-1.0-34.0-0.0-5.0,0,0,80,,,,,,32.0,,,,,1.0,,,,,,,,,,,,,,,,,,166.0,2.0,,,,,,,,,,,,,,,
177,,choice,,html-keyboard-response,177,248576,0.0-1.0-34.0-0.1-0.1,0,0,80,,1144.0,,,50.0,32.0,32.0,2000.0,2000.0,0.0,1.0,0.0,60-80,,0.0,nail polish,tape,60.0,80.0,nail polish11,tape10,80.0,60.0,Revlon_Super_Top_Speed_Chrome_Nail_Polish-resized200.jpg,26377601.thl.jpg,/static/Category_learning/Stimuli/Experimental_stims/nail polish/Revlon_Super_Top_Speed_Chrome_Nail_Polish-resized200.jpg,/static/Category_learning/Stimuli/Experimental_stims/tape/26377601.thl.jpg,0.0,168.0,1.144,1.0,nail polish,tape,60.0,80.0,nail polish11,tape10,80.0,60.0,,,,,,
178,,confirmation,,html-keyboard-response,178,248937,0.0-1.0-34.0-0.1-1.1-0.1,0,0,80,,,,,,32.0,,,,,1.0,,,,,,,,,,,,,,,,,,169.144,0.356,,,,,,,,,,,,,,,
179,,isi,,html-keyboard-response,179,249944,0.0-1.0-34.0-0.1-2.1,0,0,80,,,,,,32.0,,,,,1.0,,,,,,,,,,,,,,,,,,169.5,1.0,,,,,,,,,,,,,,,
180,,feedback,,html-keyboard-response,180,250950,0.0-1.0-34.0-0.1-3.1-0.1,0,0,80,,,,,,32.0,,,,,1.0,,,,,,,,,,,,,,,,,,170.5,1.0,,,,,,,,,,,,,,,
181,,iti,,html-keyboard-response,181,254456,0.0-1.0-34.0-0.1-5.1,0,0,80,,,,,,32.0,,,,,1.0,,,,,,,,,,,,,,,,,,171.5,3.5,,,,,,,,,,,,,,,
182,,choice,,html-keyboard-response,182,254538,0.0-1.0-35.0-0.0-0.0,0,0,80,,78.0,,,50.0,33.0,33.0,1000.0,1000.0,0.0,1.0,0.0,20-60,,0.0,baby carriage,power strip,20.0,60.0,baby carriage5,power strip11,20.0,40.0,Baby_Stroller.jpg,41Bw7Tl1G7L._AA262_.jpg,/static/Category_learning/Stimuli/Experimental_stims/baby carriage/Baby_Stroller.jpg,/static/Category_learning/Stimuli/Experimental_stims/power strip/41Bw7Tl1G7L._AA262_.jpg,0.0,175.0,0.078,1.0,baby carriage,power strip,20.0,60.0,baby carriage5,power strip11,20.0,40.0,,,,,,
183,,confirmation,,html-keyboard-response,183,255964,0.0-1.0-35.0-0.0-1.0-0.0,0,0,80,,,,,,33.0,,,,,1.0,,,,,,,,,,,,,,,,,,175.078,1.422,,,,,,,,,,,,,,,
184,,isi,,html-keyboard-response,184,256969,0.0-1.0-35.0-0.0-2.0,0,0,80,,,,,,33.0,,,,,1.0,,,,,,,,,,,,,,,,,,176.5,1.0,,,,,,,,,,,,,,,
185,,feedback,,html-keyboard-response,185,257976,0.0-1.0-35.0-0.0-3.0-0.0,0,0,80,,,,,,33.0,,,,,1.0,,,,,,,,,,,,,,,,,,177.5,1.0,,,,,,,,,,,,,,,
186,,iti,,html-keyboard-response,186,258985,0.0-1.0-35.0-0.0-5.0,0,0,80,,,,,,33.0,,,,,1.0,,,,,,,,,,,,,,,,,,178.5,1.0,,,,,,,,,,,,,,,
187,,choice,,html-keyboard-response,187,259387,0.0-1.0-36.0-0.0-0.0,0,0,80,,398.0,,,50.0,34.0,34.0,3500.0,1500.0,0.0,1.0,0.0,20-20,,,dresser,fan,20.0,20.0,dresser6,fan4,40.0,0.0,ADRESSE96.jpg,AFAN39.jpg,/static/Category_learning/Stimuli/Experimental_stims/dresser/ADRESSE96.jpg,/static/Category_learning/Stimuli/Experimental_stims/fan/AFAN39.jpg,0.0,179.5,0.398,1.0,dresser,fan,20.0,20.0,dresser6,fan4,40.0,0.0,,,,,,
188,,confirmation,,html-keyboard-response,188,260494,0.0-1.0-36.0-0.0-1.0-0.0,0,0,80,,,,,,34.0,,,,,1.0,,,,,,,,,,,,,,,,,,179.898,1.102,,,,,,,,,,,,,,,
189,,isi,,html-keyboard-response,189,264002,0.0-1.0-36.0-0.0-2.0,0,0,80,,,,,,34.0,,,,,1.0,,,,,,,,,,,,,,,,,,181.0,3.5,,,,,,,,,,,,,,,
190,,feedback,,html-keyboard-response,190,265011,0.0-1.0-36.0-0.0-3.0-0.0,0,0,80,,,,,,34.0,,,,,1.0,,,,,,,,,,,,,,,,,,184.5,1.0,,,,,,,,,,,,,,,
191,,iti,,html-keyboard-response,191,266516,0.0-1.0-36.0-0.0-5.0,0,0,80,,,,,,34.0,,,,,1.0,,,,,,,,,,,,,,,,,,185.5,1.5,,,,,,,,,,,,,,,
192,,choice,,html-keyboard-response,192,268025,0.0-1.0-37.0-0.0-0.0,0,0,80,,,,,,35.0,35.0,1500.0,1500.0,0.0,1.0,0.0,20-80,,1.0,vase,bowl,80.0,20.0,vase9,bowl2,80.0,40.0,Avasewithang2.jpg,AMIXBOWL2.jpg,/static/Category_learning/Stimuli/Experimental_stims/vase/Avasewithang2.jpg,/static/Category_learning/Stimuli/Experimental_stims/bowl/AMIXBOWL2.jpg,1.0,187.0,1.5,,,,,,,,,,,,,,,
193,,isi,,html-keyboard-response,193,269529,0.0-1.0-37.0-0.0-2.0,0,0,80,,,,,,35.0,,,,,1.0,,,,,,,,,,,,,,,,,,188.5,1.5,,,,,,,,,,,,,,,
194,,no_response,,html-keyboard-response,194,270536,0.0-1.0-37.0-0.0-4.0-0.0,0,0,80,,,,,,35.0,,,,,1.0,,,,,,,,,,,,,,,,,,190.0,1.0,,,,,,,,,,,,,,,
195,,iti,,html-keyboard-response,195,272056,0.0-1.0-37.0-0.0-5.0,0,0,80,,,,,,35.0,,,,,1.0,,,,,,,,,,,,,,,,,,191.0,1.5,,,,,,,,,,,,,,,
196,,choice,,html-keyboard-response,196,272709,0.0-1.0-37.0-0.1-0.1,0,0,80,,648.0,,,50.0,35.0,35.0,1500.0,1500.0,0.0,1.0,0.0,20-80,,1.0,vase,bowl,80.0,20.0,vase9,bowl2,80.0,40.0,Avasewithang2.jpg,AMIXBOWL2.jpg,/static/Category_learning/Stimuli/Experimental_stims/vase/Avasewithang2.jpg,/static/Category_learning/Stimuli/Experimental_stims/bowl/AMIXBOWL2.jpg,0.0,192.5,0.648,1.0,vase,bowl,80.0,20.0,vase9,bowl2,80.0,40.0,,,,,,
197,,confirmation,,html-keyboard-response,197,273566,0.0-1.0-37.0-0.1-1.1-0.1,0,0,80,,,,,,35.0,,,,,1.0,,,,,,,,,,,,,,,,,,193.148,0.852,,,,,,,,,,,,,,,
198,,isi,,html-keyboard-response,198,274574,0.0-1.0-37.0-0.1-2.1,0,0,80,,,,,,35.0,,,,,1.0,,,,,,,,,,,,,,,,,,194.0,1.0,,,,,,,,,,,,,,,
199,,feedback,,html-keyboard-response,199,275581,0.0-1.0-37.0-0.1-3.1-0.1,0,0,80,,,,,,35.0,,,,,1.0,,,,,,,,,,,,,,,,,,195.0,1.0,,,,,,,,,,,,,,,
200,,iti,,html-keyboard-response,200,277084,0.0-1.0-37.0-0.1-5.1,0,0,80,,,,,,35.0,,,,,1.0,,,,,,,,,,,,,,,,,,196.0,1.5,,,,,,,,,,,,,,,
201,,choice,,html-keyboard-response,201,277091,0.0-1.0-38.0-0.0-0.0,0,0,80,,4.0,,,50.0,36.0,36.0,2000.0,1000.0,0.0,1.0,0.0,40-40,,,hammer,lipstick,40.0,40.0,hammer12,lipstick14,20.0,60.0,24oz hammer.jpg,P109907_hero.jpg,/static/Category_learning/Stimuli/Experimental_stims/hammer/24oz hammer.jpg,/static/Category_learning/Stimuli/Experimental_stims/lipstick/P109907_hero.jpg,0.0,197.5,0.004,1.0,hammer,lipstick,40.0,40.0,hammer12,lipstick14,20.0,60.0,,,,,,
202,,confirmation,,html-keyboard-response,202,278591,0.0-1.0-38.0-0.0-1.0-0.0,0,0,80,,,,,,36.0,,,,,1.0,,,,,,,,,,,,,,,,,,197.504,1.496,,,,,,,,,,,,,,,
203,,isi,,html-keyboard-response,203,280595,0.0-1.0-38.0-0.0-2.0,0,0,80,,,,,,36.0,,,,,1.0,,,,,,,,,,,,,,,,,,199.0,2.0,,,,,,,,,,,,,,,
204,,feedback,,html-keyboard-response,204,281603,0.0-1.0-38.0-0.0-3.0-0.0,0,0,80,,,,,,36.0,,,,,1.0,,,,,,,,,,,,,,,,,,201.0,1.0,,,,,,,,,,,,,,,
205,,iti,,html-keyboard-response,205,282611,0.0-1.0-38.0-0.0-5.0,0,0,80,,,,,,36.0,,,,,1.0,,,,,,,,,,,,,,,,,,202.0,1.0,,,,,,,,,,,,,,,
206,,choice,,html-keyboard-response,206,283186,0.0-1.0-39.0-0.0-0.0,0,0,80,,571.0,,,50.0,37.0,37.0,3000.0,2000.0,0.0,1.0,1.0,80-80,1.0,,stool,stool,80.0,80.0,stool7,stool12,80.0,80.0,ASTOOL25.jpg,henrybar_stool1.jpg,/static/Category_learning/Stimuli/Experimental_stims/stool/ASTOOL25.jpg,/static/Category_learning/Stimuli/Experimental_stims/stool/henrybar_stool1.jpg,0.0,203.0,0.571,1.0,stool,stool,80.0,80.0,stool7,stool12,80.0,80.0,,,,,,
207,,confirmation,,html-keyboard-response,207,284119,0.0-1.0-39.0-0.0-1.0-0.0,0,0,80,,,,,,37.0,,,,,1.0,,,,,,,,,,,,,,,,,,203.571,0.929,,,,,,,,,,,,,,,
208,,isi,,html-keyboard-response,208,287126,0.0-1.0-39.0-0.0-2.0,0,0,80,,,,,,37.0,,,,,1.0,,,,,,,,,,,,,,,,,,204.5,3.0,,,,,,,,,,,,,,,
209,,feedback,,html-keyboard-response,209,288131,0.0-1.0-39.0-0.0-3.0-0.0,0,0,80,,,,,,37.0,,,,,1.0,,,,,,,,,,,,,,,,,,207.5,1.0,,,,,,,,,,,,,,,
210,,iti,,html-keyboard-response,210,290136,0.0-1.0-39.0-0.0-5.0,0,0,80,,,,,,37.0,,,,,1.0,,,,,,,,,,,,,,,,,,208.5,2.0,,,,,,,,,,,,,,,
211,,choice,,html-keyboard-response,211,291452,0.0-1.0-40.0-0.0-0.0,0,0,80,,1311.0,,,50.0,38.0,38.0,1500.0,3000.0,0.0,1.0,0.0,20-60,,1.0,poker card,door knob,60.0,20.0,poker card13,door knob14,80.0,20.0,9817197.thl.jpg,500_CLANYKAB.jpg,/static/Category_learning/Stimuli/Experimental_stims/poker card/9817197.thl.jpg,/static/Category_learning/Stimuli/Experimental_stims/door knob/500_CLANYKAB.jpg,0.0,210.5,1.311,1.0,poker card,door knob,60.0,20.0,poker card13,door knob14,80.0,20.0,,,,,,
212,,confirmation,,html-keyboard-response,212,291646,0.0-1.0-40.0-0.0-1.0-0.0,0,0,80,,,,,,38.0,,,,,1.0,,,,,,,,,,,,,,,,,,211.811,0.189,,,,,,,,,,,,,,,
213,,isi,,html-keyboard-response,213,293153,0.0-1.0-40.0-0.0-2.0,0,0,80,,,,,,38.0,,,,,1.0,,,,,,,,,,,,,,,,,,212.0,1.5,,,,,,,,,,,,,,,
214,,feedback,,html-keyboard-response,214,294161,0.0-1.0-40.0-0.0-3.0-0.0,0,0,80,,,,,,38.0,,,,,1.0,,,,,,,,,,,,,,,,,,213.5,1.0,,,,,,,,,,,,,,,
215,,iti,,html-keyboard-response,215,297166,0.0-1.0-40.0-0.0-5.0,0,0,80,,,,,,38.0,,,,,1.0,,,,,,,,,,,,,,,,,,214.5,3.0,,,,,,,,,,,,,,,
216,,choice,,html-keyboard-response,216,297613,0.0-1.0-41.0-0.0-0.0,0,0,80,,443.0,,,50.0,39.0,39.0,3500.0,1000.0,0.0,1.0,1.0,80-80,1.0,,vase,vase,80.0,80.0,vase3,vase9,80.0,80.0,vase-006af-1.jpg,Avasewithang2.jpg,/static/Category_learning/Stimuli/Experimental_stims/vase/vase-006af-1.jpg,/static/Category_learning/Stimuli/Experimental_stims/vase/Avasewithang2.jpg,0.0,217.5,0.443,1.0,vase,vase,80.0,80.0,vase3,vase9,80.0,80.0,,,,,,
217,,confirmation,,html-keyboard-response,217,298676,0.0-1.0-41.0-0.0-1.0-0.0,0,0,80,,,,,,39.0,,,,,1.0,,,,,,,,,,,,,,,,,,217.943,1.057,,,,,,,,,,,,,,,
218,,isi,,html-keyboard-response,218,302179,0.0-1.0-41.0-0.0-2.0,0,0,80,,,,,,39.0,,,,,1.0,,,,,,,,,,,,,,,,,,219.0,3.5,,,,,,,,,,,,,,,
219,,feedback,,html-keyboard-response,219,303187,0.0-1.0-41.0-0.0-3.0-0.0,0,0,80,,,,,,39.0,,,,,1.0,,,,,,,,,,,,,,,,,,222.5,1.0,,,,,,,,,,,,,,,
220,,iti,,html-keyboard-response,220,304195,0.0-1.0-41.0-0.0-5.0,0,0,80,,,,,,39.0,,,,,1.0,,,,,,,,,,,,,,,,,,223.5,1.0,,,,,,,,,,,,,,,
221,,choice,,html-keyboard-response,221,304603,0.0-1.0-42.0-0.0-0.0,0,0,80,,404.0,,,50.0,40.0,40.0,2000.0,3000.0,0.0,1.0,1.0,20-60,0.0,,poker card,fan,60.0,20.0,poker card13,fan14,80.0,40.0,9817197.thl.jpg,124771_sk_lg.jpg,/static/Category_learning/Stimuli/Experimental_stims/poker card/9817197.thl.jpg,/static/Category_learning/Stimuli/Experimental_stims/fan/124771_sk_lg.jpg,0.0,224.5,0.404,1.0,poker card,fan,60.0,20.0,poker card13,fan14,80.0,40.0,,,,,,
222,,confirmation,,html-keyboard-response,222,305704,0.0-1.0-42.0-0.0-1.0-0.0,0,0,80,,,,,,40.0,,,,,1.0,,,,,,,,,,,,,,,,,,224.904,1.096,,,,,,,,,,,,,,,
223,,isi,,html-keyboard-response,223,307709,0.0-1.0-42.0-0.0-2.0,0,0,80,,,,,,40.0,,,,,1.0,,,,,,,,,,,,,,,,,,226.0,2.0,,,,,,,,,,,,,,,
224,,feedback,,html-keyboard-response,224,308717,0.0-1.0-42.0-0.0-3.0-0.0,0,0,80,,,,,,40.0,,,,,1.0,,,,,,,,,,,,,,,,,,228.0,1.0,,,,,,,,,,,,,,,
225,,iti,,html-keyboard-response,225,311720,0.0-1.0-42.0-0.0-5.0,0,0,80,,,,,,40.0,,,,,1.0,,,,,,,,,,,,,,,,,,229.0,3.0,,,,,,,,,,,,,,,
226,,choice,,html-keyboard-response,226,312026,0.0-1.0-43.0-0.0-0.0,0,0,80,,303.0,,,50.0,41.0,41.0,1000.0,1000.0,0.0,1.0,0.0,20-60,,1.0,small table,bongo,60.0,20.0,small table4,bongo9,40.0,20.0,ACOFTABLE.jpg,22946035.thl.jpg,/static/Category_learning/Stimuli/Experimental_stims/small table/ACOFTABLE.jpg,/static/Category_learning/Stimuli/Experimental_stims/bongo/22946035.thl.jpg,0.0,232.0,0.303,1.0,small table,bongo,60.0,20.0,small table4,bongo9,40.0,20.0,,,,,,
227,,confirmation,,html-keyboard-response,227,313228,0.0-1.0-43.0-0.0-1.0-0.0,0,0,80,,,,,,41.0,,,,,1.0,,,,,,,,,,,,,,,,,,232.303,1.197,,,,,,,,,,,,,,,
228,,isi,,html-keyboard-response,228,314234,0.0-1.0-43.0-0.0-2.0,0,0,80,,,,,,41.0,,,,,1.0,,,,,,,,,,,,,,,,,,233.5,1.0,,,,,,,,,,,,,,,
229,,feedback,,html-keyboard-response,229,315241,0.0-1.0-43.0-0.0-3.0-0.0,0,0,80,,,,,,41.0,,,,,1.0,,,,,,,,,,,,,,,,,,234.5,1.0,,,,,,,,,,,,,,,
230,,iti,,html-keyboard-response,230,316249,0.0-1.0-43.0-0.0-5.0,0,0,80,,,,,,41.0,,,,,1.0,,,,,,,,,,,,,,,,,,235.5,1.0,,,,,,,,,,,,,,,
231,,choice,,html-keyboard-response,231,316387,0.0-1.0-44.0-0.0-0.0,0,0,80,,134.0,,,50.0,42.0,42.0,3500.0,1000.0,0.0,1.0,0.0,60-60,,,necklace,poker card,60.0,60.0,necklace2,poker card5,40.0,40.0,Anecklace7.jpg,22864800.thl.jpg,/static/Category_learning/Stimuli/Experimental_stims/necklace/Anecklace7.jpg,/static/Category_learning/Stimuli/Experimental_stims/poker card/22864800.thl.jpg,0.0,236.5,0.134,1.0,necklace,poker card,60.0,60.0,necklace2,poker card5,40.0,40.0,,,,,,
232,,confirmation,,html-keyboard-response,232,317758,0.0-1.0-44.0-0.0-1.0-0.0,0,0,80,,,,,,42.0,,,,,1.0,,,,,,,,,,,,,,,,,,236.634,1.366,,,,,,,,,,,,,,,
233,,isi,,html-keyboard-response,233,321265,0.0-1.0-44.0-0.0-2.0,0,0,80,,,,,,42.0,,,,,1.0,,,,,,,,,,,,,,,,,,238.0,3.5,,,,,,,,,,,,,,,
234,,feedback,,html-keyboard-response,234,322270,0.0-1.0-44.0-0.0-3.0-0.0,0,0,80,,,,,,42.0,,,,,1.0,,,,,,,,,,,,,,,,,,241.5,1.0,,,,,,,,,,,,,,,
235,,iti,,html-keyboard-response,235,323277,0.0-1.0-44.0-0.0-5.0,0,0,80,,,,,,42.0,,,,,1.0,,,,,,,,,,,,,,,,,,242.5,1.0,,,,,,,,,,,,,,,
236,,choice,,html-keyboard-response,236,323407,0.0-1.0-45.0-0.0-0.0,0,0,80,,128.0,,,50.0,43.0,43.0,2000.0,2000.0,0.0,1.0,0.0,40-60,,0.0,lipstick,power strip,40.0,60.0,lipstick10,power strip10,60.0,60.0,21K0D7QKFAL._SS500_.jpg,6bd437c9-6165-4d36-bf75-9a1038783c6a_400.jpg,/static/Category_learning/Stimuli/Experimental_stims/lipstick/21K0D7QKFAL._SS500_.jpg,/static/Category_learning/Stimuli/Experimental_stims/power strip/6bd437c9-6165-4d36-bf75-9a1038783c6a_400.jpg,0.0,243.5,0.128,1.0,lipstick,power strip,40.0,60.0,lipstick10,power strip10,60.0,60.0,,,,,,
237,,confirmation,,html-keyboard-response,237,324786,0.0-1.0-45.0-0.0-1.0-0.0,0,0,80,,,,,,43.0,,,,,1.0,,,,,,,,,,,,,,,,,,243.628,1.372,,,,,,,,,,,,,,,
238,,isi,,html-keyboard-response,238,326794,0.0-1.0-45.0-0.0-2.0,0,0,80,,,,,,43.0,,,,,1.0,,,,,,,,,,,,,,,,,,245.0,2.0,,,,,,,,,,,,,,,
239,,feedback,,html-keyboard-response,239,327802,0.0-1.0-45.0-0.0-3.0-0.0,0,0,80,,,,,,43.0,,,,,1.0,,,,,,,,,,,,,,,,,,247.0,1.0,,,,,,,,,,,,,,,
240,,iti,,html-keyboard-response,240,329808,0.0-1.0-45.0-0.0-5.0,0,0,80,,,,,,43.0,,,,,1.0,,,,,,,,,,,,,,,,,,248.0,2.0,,,,,,,,,,,,,,,
241,,choice,,html-keyboard-response,241,330227,0.0-1.0-46.0-0.0-0.0,0,0,80,,415.0,,,50.0,44.0,44.0,1000.0,3000.0,0.0,1.0,1.0,40-40,1.0,,lipstick,lipstick,40.0,40.0,lipstick7,lipstick10,60.0,60.0,P101401_hero.jpg,21K0D7QKFAL._SS500_.jpg,/static/Category_learning/Stimuli/Experimental_stims/lipstick/P101401_hero.jpg,/static/Category_learning/Stimuli/Experimental_stims/lipstick/21K0D7QKFAL._SS500_.jpg,0.0,250.0,0.415,1.0,lipstick,lipstick,40.0,40.0,lipstick7,lipstick10,60.0,60.0,,,,,,
242,,confirmation,,html-keyboard-response,242,331316,0.0-1.0-46.0-0.0-1.0-0.0,0,0,80,,,,,,44.0,,,,,1.0,,,,,,,,,,,,,,,,,,250.415,1.085,,,,,,,,,,,,,,,
243,,isi,,html-keyboard-response,243,332324,0.0-1.0-46.0-0.0-2.0,0,0,80,,,,,,44.0,,,,,1.0,,,,,,,,,,,,,,,,,,251.5,1.0,,,,,,,,,,,,,,,
244,,feedback,,html-keyboard-response,244,333331,0.0-1.0-46.0-0.0-3.0-0.0,0,0,80,,,,,,44.0,,,,,1.0,,,,,,,,,,,,,,,,,,252.5,1.0,,,,,,,,,,,,,,,
245,,iti,,html-keyboard-response,245,336339,0.0-1.0-46.0-0.0-5.0,0,0,80,,,,,,44.0,,,,,1.0,,,,,,,,,,,,,,,,,,253.5,3.0,,,,,,,,,,,,,,,
246,,choice,,html-keyboard-response,246,337770,0.0-1.0-47.0-0.0-0.0,0,0,80,,1427.0,,,50.0,45.0,45.0,1500.0,1000.0,0.0,1.0,1.0,20-40,0.0,,baby carriage,license plate,20.0,40.0,baby carriage5,license plate12,20.0,20.0,Baby_Stroller.jpg,TurtleLicensePlate.jpg,/static/Category_learning/Stimuli/Experimental_stims/baby carriage/Baby_Stroller.jpg,/static/Category_learning/Stimuli/Experimental_stims/license plate/TurtleLicensePlate.jpg,0.0,256.5,1.427,1.0,baby carriage,license plate,20.0,40.0,baby carriage5,license plate12,20.0,20.0,,,,,,
247,,confirmation,,html-keyboard-response,247,337848,0.0-1.0-47.0-0.0-1.0-0.0,0,0,80,,,,,,45.0,,,,,1.0,,,,,,,,,,,,,,,,,,257.927,0.073,,,,,,,,,,,,,,,
248,,isi,,html-keyboard-response,248,339353,0.0-1.0-47.0-0.0-2.0,0,0,80,,,,,,45.0,,,,,1.0,,,,,,,,,,,,,,,,,,258.0,1.5,,,,,,,,,,,,,,,
249,,feedback,,html-keyboard-response,249,340361,0.0-1.0-47.0-0.0-3.0-0.0,0,0,80,,,,,,45.0,,,,,1.0,,,,,,,,,,,,,,,,,,259.5,1.0,,,,,,,,,,,,,,,
250,,iti,,html-keyboard-response,250,341368,0.0-1.0-47.0-0.0-5.0,0,0,80,,,,,,45.0,,,,,1.0,,,,,,,,,,,,,,,,,,260.5,1.0,,,,,,,,,,,,,,,
251,,choice,,html-keyboard-response,251,342877,0.0-1.0-48.0-0.0-0.0,0,0,80,,,,,,46.0,46.0,1000.0,1500.0,0.0,1.0,0.0,20-40,,0.0,bongo,hammer,20.0,40.0,bongo13,hammer4,0.0,40.0,26388718.thl.jpg,hammernew01.jpg,/static/Category_learning/Stimuli/Experimental_stims/bongo/26388718.thl.jpg,/static/Category_learning/Stimuli/Experimental_stims/hammer/hammernew01.jpg,1.0,261.5,1.5,,,,,,,,,,,,,,,
252,,isi,,html-keyboard-response,252,343883,0.0-1.0-48.0-0.0-2.0,0,0,80,,,,,,46.0,,,,,1.0,,,,,,,,,,,,,,,,,,263.0,1.0,,,,,,,,,,,,,,,
253,,no_response,,html-keyboard-response,253,344888,0.0-1.0-48.0-0.0-4.0-0.0,0,0,80,,,,,,46.0,,,,,1.0,,,,,,,,,,,,,,,,,,264.0,1.0,,,,,,,,,,,,,,,
254,,iti,,html-keyboard-response,254,346416,0.0-1.0-48.0-0.0-5.0,0,0,80,,,,,,46.0,,,,,1.0,,,,,,,,,,,,,,,,,,265.0,1.5,,,,,,,,,,,,,,,
255,,choice,,html-keyboard-response,255,347923,0.0-1.0-48.0-0.1-0.1,0,0,80,,,,,,46.0,46.0,1000.0,1500.0,0.0,1.0,0.0,20-40,,0.0,bongo,hammer,20.0,40.0,bongo13,hammer4,0.0,40.0,26388718.thl.jpg,hammernew01.jpg,/static/Category_learning/Stimuli/Experimental_stims/bongo/26388718.thl.jpg,/static/Category_learning/Stimuli/Experimental_stims/hammer/hammernew01.jpg,1.0,266.5,1.5,,,,,,,,,,,,,,,
256,,isi,,html-keyboard-response,256,348932,0.0-1.0-48.0-0.1-2.1,0,0,80,,,,,,46.0,,,,,1.0,,,,,,,,,,,,,,,,,,268.0,1.0,,,,,,,,,,,,,,,
257,,no_response,,html-keyboard-response,257,349939,0.0-1.0-48.0-0.1-4.1-0.1,0,0,80,,,,,,46.0,,,,,1.0,,,,,,,,,,,,,,,,,,269.0,1.0,,,,,,,,,,,,,,,
258,,iti,,html-keyboard-response,258,351460,0.0-1.0-48.0-0.1-5.1,0,0,80,,,,,,46.0,,,,,1.0,,,,,,,,,,,,,,,,,,270.0,1.5,,,,,,,,,,,,,,,
259,,choice,,html-keyboard-response,259,352671,0.0-1.0-48.0-0.2-0.2,0,0,80,,1208.0,,,50.0,46.0,46.0,1000.0,1500.0,0.0,1.0,0.0,20-40,,0.0,bongo,hammer,20.0,40.0,bongo13,hammer4,0.0,40.0,26388718.thl.jpg,hammernew01.jpg,/static/Category_learning/Stimuli/Experimental_stims/bongo/26388718.thl.jpg,/static/Category_learning/Stimuli/Experimental_stims/hammer/hammernew01.jpg,0.0,271.5,1.208,1.0,bongo,hammer,20.0,40.0,bongo13,hammer4,0.0,40.0,,,,,,
260,,confirmation,,html-keyboard-response,260,352967,0.0-1.0-48.0-0.2-1.2-0.2,0,0,80,,,,,,46.0,,,,,1.0,,,,,,,,,,,,,,,,,,272.708,0.292,,,,,,,,,,,,,,,
261,,isi,,html-keyboard-response,261,353971,0.0-1.0-48.0-0.2-2.2,0,0,80,,,,,,46.0,,,,,1.0,,,,,,,,,,,,,,,,,,273.0,1.0,,,,,,,,,,,,,,,
262,,feedback,,html-keyboard-response,262,354979,0.0-1.0-48.0-0.2-3.2-0.2,0,0,80,,,,,,46.0,,,,,1.0,,,,,,,,,,,,,,,,,,274.0,1.0,,,,,,,,,,,,,,,
263,,iti,,html-keyboard-response,263,356482,0.0-1.0-48.0-0.2-5.2,0,0,80,,,,,,46.0,,,,,1.0,,,,,,,,,,,,,,,,,,275.0,1.5,,,,,,,,,,,,,,,
264,,choice,,html-keyboard-response,264,356848,0.0-1.0-49.0-0.0-0.0,0,0,80,,362.0,,,50.0,47.0,47.0,1000.0,2000.0,0.0,1.0,0.0,40-80,,1.0,telescope,frame,80.0,40.0,telescope15,frame3,80.0,40.0,VictorianDeskTelescope.jpg,AFRAME132.jpg,/static/Category_learning/Stimuli/Experimental_stims/telescope/VictorianDeskTelescope.jpg,/static/Category_learning/Stimuli/Experimental_stims/frame/AFRAME132.jpg,0.0,276.5,0.362,1.0,telescope,frame,80.0,40.0,telescope15,frame3,80.0,40.0,,,,,,
265,,confirmation,,html-keyboard-response,265,357990,0.0-1.0-49.0-0.0-1.0-0.0,0,0,80,,,,,,47.0,,,,,1.0,,,,,,,,,,,,,,,,,,276.862,1.138,,,,,,,,,,,,,,,
266,,isi,,html-keyboard-response,266,358995,0.0-1.0-49.0-0.0-2.0,0,0,80,,,,,,47.0,,,,,1.0,,,,,,,,,,,,,,,,,,278.0,1.0,,,,,,,,,,,,,,,
267,,feedback,,html-keyboard-response,267,360002,0.0-1.0-49.0-0.0-3.0-0.0,0,0,80,,,,,,47.0,,,,,1.0,,,,,,,,,,,,,,,,,,279.0,1.0,,,,,,,,,,,,,,,
268,,iti,,html-keyboard-response,268,362009,0.0-1.0-49.0-0.0-5.0,0,0,80,,,,,,47.0,,,,,1.0,,,,,,,,,,,,,,,,,,280.0,2.0,,,,,,,,,,,,,,,
269,,choice,,html-keyboard-response,269,362165,0.0-1.0-50.0-0.0-0.0,0,0,80,,152.0,,,50.0,48.0,48.0,1000.0,2000.0,0.0,1.0,0.0,20-20,,,bench,flashlight,20.0,20.0,bench5,flashlight3,0.0,20.0,APARKBEN8.jpg,sl_tasklight_2l3w.jpg,/static/Category_learning/Stimuli/Experimental_stims/bench/APARKBEN8.jpg,/static/Category_learning/Stimuli/Experimental_stims/flashlight/sl_tasklight_2l3w.jpg,0.0,282.0,0.152,1.0,bench,flashlight,20.0,20.0,bench5,flashlight3,0.0,20.0,,,,,,
270,,confirmation,,html-keyboard-response,270,363518,0.0-1.0-50.0-0.0-1.0-0.0,0,0,80,,,,,,48.0,,,,,1.0,,,,,,,,,,,,,,,,,,282.152,1.348,,,,,,,,,,,,,,,
271,,isi,,html-keyboard-response,271,364525,0.0-1.0-50.0-0.0-2.0,0,0,80,,,,,,48.0,,,,,1.0,,,,,,,,,,,,,,,,,,283.5,1.0,,,,,,,,,,,,,,,
272,,feedback,,html-keyboard-response,272,365528,0.0-1.0-50.0-0.0-3.0-0.0,0,0,80,,,,,,48.0,,,,,1.0,,,,,,,,,,,,,,,,,,284.5,1.0,,,,,,,,,,,,,,,
273,,iti,,html-keyboard-response,273,367534,0.0-1.0-50.0-0.0-5.0,0,0,80,,,,,,48.0,,,,,1.0,,,,,,,,,,,,,,,,,,285.5,2.0,,,,,,,,,,,,,,,
274,,choice,,html-keyboard-response,274,368202,0.0-1.0-51.0-0.0-0.0,0,0,80,,665.0,,,50.0,49.0,49.0,1500.0,1500.0,0.0,1.0,1.0,60-80,0.0,,necklace,telescope,60.0,80.0,necklace2,telescope15,40.0,80.0,Anecklace7.jpg,VictorianDeskTelescope.jpg,/static/Category_learning/Stimuli/Experimental_stims/necklace/Anecklace7.jpg,/static/Category_learning/Stimuli/Experimental_stims/telescope/VictorianDeskTelescope.jpg,0.0,287.5,0.665,1.0,necklace,telescope,60.0,80.0,necklace2,telescope15,40.0,80.0,,,,,,
275,,confirmation,,html-keyboard-response,275,369042,0.0-1.0-51.0-0.0-1.0-0.0,0,0,80,,,,,,49.0,,,,,1.0,,,,,,,,,,,,,,,,,,288.165,0.835,,,,,,,,,,,,,,,
276,,isi,,html-keyboard-response,276,370546,0.0-1.0-51.0-0.0-2.0,0,0,80,,,,,,49.0,,,,,1.0,,,,,,,,,,,,,,,,,,289.0,1.5,,,,,,,,,,,,,,,
277,,feedback,,html-keyboard-response,277,371552,0.0-1.0-51.0-0.0-3.0-0.0,0,0,80,,,,,,49.0,,,,,1.0,,,,,,,,,,,,,,,,,,290.5,1.0,,,,,,,,,,,,,,,
278,,iti,,html-keyboard-response,278,373056,0.0-1.0-51.0-0.0-5.0,0,0,80,,,,,,49.0,,,,,1.0,,,,,,,,,,,,,,,,,,291.5,1.5,,,,,,,,,,,,,,,
279,,choice,,html-keyboard-response,279,373516,0.0-1.0-52.0-0.0-0.0,0,0,80,,455.0,,,50.0,50.0,50.0,1000.0,1500.0,0.0,1.0,0.0,40-80,,0.0,frame,vase,40.0,80.0,frame11,vase14,60.0,80.0,AFRAME139.jpg,Avase119.jpg,/static/Category_learning/Stimuli/Experimental_stims/frame/AFRAME139.jpg,/static/Category_learning/Stimuli/Experimental_stims/vase/Avase119.jpg,0.0,293.0,0.455,1.0,frame,vase,40.0,80.0,frame11,vase14,60.0,80.0,,,,,,
280,,confirmation,,html-keyboard-response,280,374565,0.0-1.0-52.0-0.0-1.0-0.0,0,0,80,,,,,,50.0,,,,,1.0,,,,,,,,,,,,,,,,,,293.455,1.045,,,,,,,,,,,,,,,
281,,isi,,html-keyboard-response,281,375568,0.0-1.0-52.0-0.0-2.0,0,0,80,,,,,,50.0,,,,,1.0,,,,,,,,,,,,,,,,,,294.5,1.0,,,,,,,,,,,,,,,
282,,feedback,,html-keyboard-response,282,376576,0.0-1.0-52.0-0.0-3.0-0.0,0,0,80,,,,,,50.0,,,,,1.0,,,,,,,,,,,,,,,,,,295.5,1.0,,,,,,,,,,,,,,,
283,,iti,,html-keyboard-response,283,378083,0.0-1.0-52.0-0.0-5.0,0,0,80,,,,,,50.0,,,,,1.0,,,,,,,,,,,,,,,,,,296.5,1.5,,,,,,,,,,,,,,,
284,,choice,,html-keyboard-response,284,378875,0.0-1.0-53.0-0.0-0.0,0,0,80,,788.0,,,50.0,51.0,51.0,2000.0,2000.0,0.0,1.0,0.0,20-60,,1.0,seashell,door knob,60.0,20.0,seashell11,door knob1,80.0,0.0,ASEASH12.jpg,Brass_Door_Handle.jpg,/static/Category_learning/Stimuli/Experimental_stims/seashell/ASEASH12.jpg,/static/Category_learning/Stimuli/Experimental_stims/door knob/Brass_Door_Handle.jpg,0.0,298.0,0.788,1.0,seashell,door knob,60.0,20.0,seashell11,door knob1,80.0,0.0,,,,,,
285,,confirmation,,html-keyboard-response,285,379591,0.0-1.0-53.0-0.0-1.0-0.0,0,0,80,,,,,,51.0,,,,,1.0,,,,,,,,,,,,,,,,,,298.788,0.712,,,,,,,,,,,,,,,
286,,isi,,html-keyboard-response,286,381596,0.0-1.0-53.0-0.0-2.0,0,0,80,,,,,,51.0,,,,,1.0,,,,,,,,,,,,,,,,,,299.5,2.0,,,,,,,,,,,,,,,
287,,feedback,,html-keyboard-response,287,382603,0.0-1.0-53.0-0.0-3.0-0.0,0,0,80,,,,,,51.0,,,,,1.0,,,,,,,,,,,,,,,,,,301.5,1.0,,,,,,,,,,,,,,,
288,,iti,,html-keyboard-response,288,384611,0.0-1.0-53.0-0.0-5.0,0,0,80,,,,,,51.0,,,,,1.0,,,,,,,,,,,,,,,,,,302.5,2.0,,,,,,,,,,,,,,,
289,,choice,,html-keyboard-response,289,384899,0.0-1.0-54.0-0.0-0.0,0,0,80,,283.0,,,50.0,52.0,52.0,2000.0,1000.0,0.0,1.0,0.0,20-40,,0.0,flashlight,makeup compact,20.0,40.0,flashlight2,makeup compact13,0.0,40.0,AV-9 No Battery Flashlight.jpg,31YfapjS3TL._AA250_.jpg,/static/Category_learning/Stimuli/Experimental_stims/flashlight/AV-9 No Battery Flashlight.jpg,/static/Category_learning/Stimuli/Experimental_stims/makeup compact/31YfapjS3TL._AA250_.jpg,0.0,304.5,0.283,1.0,flashlight,makeup compact,20.0,40.0,flashlight2,makeup compact13,0.0,40.0,,,,,,
290,,confirmation,,html-keyboard-response,290,386120,0.0-1.0-54.0-0.0-1.0-0.0,0,0,80,,,,,,52.0,,,,,1.0,,,,,,,,,,,,,,,,,,304.783,1.217,,,,,,,,,,,,,,,
291,,isi,,html-keyboard-response,291,388126,0.0-1.0-54.0-0.0-2.0,0,0,80,,,,,,52.0,,,,,1.0,,,,,,,,,,,,,,,,,,306.0,2.0,,,,,,,,,,,,,,,
292,,feedback,,html-keyboard-response,292,389134,0.0-1.0-54.0-0.0-3.0-0.0,0,0,80,,,,,,52.0,,,,,1.0,,,,,,,,,,,,,,,,,,308.0,1.0,,,,,,,,,,,,,,,
293,,iti,,html-keyboard-response,293,390142,0.0-1.0-54.0-0.0-5.0,0,0,80,,,,,,52.0,,,,,1.0,,,,,,,,,,,,,,,,,,309.0,1.0,,,,,,,,,,,,,,,
294,,choice,,html-keyboard-response,294,390402,0.0-1.0-55.0-0.0-0.0,0,0,80,,256.0,,,50.0,53.0,53.0,1500.0,1000.0,0.0,1.0,0.0,20-60,,1.0,sofa,bongo,60.0,20.0,sofa4,bongo4,40.0,0.0,ALOVSEA15.jpg,26390708.thl.jpg,/static/Category_learning/Stimuli/Experimental_stims/sofa/ALOVSEA15.jpg,/static/Category_learning/Stimuli/Experimental_stims/bongo/26390708.thl.jpg,0.0,310.0,0.256,1.0,sofa,bongo,60.0,20.0,sofa4,bongo4,40.0,0.0,,,,,,
295,,confirmation,,html-keyboard-response,295,391651,0.0-1.0-55.0-0.0-1.0-0.0,0,0,80,,,,,,53.0,,,,,1.0,,,,,,,,,,,,,,,,,,310.256,1.244,,,,,,,,,,,,,,,
296,,isi,,html-keyboard-response,296,393156,0.0-1.0-55.0-0.0-2.0,0,0,80,,,,,,53.0,,,,,1.0,,,,,,,,,,,,,,,,,,311.5,1.5,,,,,,,,,,,,,,,
297,,feedback,,html-keyboard-response,297,394163,0.0-1.0-55.0-0.0-3.0-0.0,0,0,80,,,,,,53.0,,,,,1.0,,,,,,,,,,,,,,,,,,313.0,1.0,,,,,,,,,,,,,,,
298,,iti,,html-keyboard-response,298,395171,0.0-1.0-55.0-0.0-5.0,0,0,80,,,,,,53.0,,,,,1.0,,,,,,,,,,,,,,,,,,314.0,1.0,,,,,,,,,,,,,,,
299,,choice,,html-keyboard-response,299,395834,0.0-1.0-56.0-0.0-0.0,0,0,80,,658.0,,,50.0,54.0,54.0,1000.0,1000.0,0.0,1.0,1.0,20-60,0.0,,power strip,flashlight,60.0,20.0,power strip5,flashlight2,40.0,0.0,93e4a283-bcd6-4ad1-8add-339658cda0fc_400.jpg,AV-9 No Battery Flashlight.jpg,/static/Category_learning/Stimuli/Experimental_stims/power strip/93e4a283-bcd6-4ad1-8add-339658cda0fc_400.jpg,/static/Category_learning/Stimuli/Experimental_stims/flashlight/AV-9 No Battery Flashlight.jpg,0.0,315.0,0.658,1.0,power strip,flashlight,60.0,20.0,power strip5,flashlight2,40.0,0.0,,,,,,
300,,confirmation,,html-keyboard-response,300,396680,0.0-1.0-56.0-0.0-1.0-0.0,0,0,80,,,,,,54.0,,,,,1.0,,,,,,,,,,,,,,,,,,315.658,0.842,,,,,,,,,,,,,,,
301,,isi,,html-keyboard-response,301,397689,0.0-1.0-56.0-0.0-2.0,0,0,80,,,,,,54.0,,,,,1.0,,,,,,,,,,,,,,,,,,316.5,1.0,,,,,,,,,,,,,,,
302,,feedback,,html-keyboard-response,302,398697,0.0-1.0-56.0-0.0-3.0-0.0,0,0,80,,,,,,54.0,,,,,1.0,,,,,,,,,,,,,,,,,,317.5,1.0,,,,,,,,,,,,,,,
303,,iti,,html-keyboard-response,303,399705,0.0-1.0-56.0-0.0-5.0,0,0,80,,,,,,54.0,,,,,1.0,,,,,,,,,,,,,,,,,,318.5,1.0,,,,,,,,,,,,,,,
304,,choice,,html-keyboard-response,304,401213,0.0-1.0-57.0-0.0-0.0,0,0,80,,,,,,55.0,55.0,1000.0,1500.0,0.0,1.0,0.0,20-80,,0.0,flashlight,train,20.0,80.0,flashlight14,train11,20.0,60.0,freeplay-jonta-flashlight.jpg,train1.jpg,/static/Category_learning/Stimuli/Experimental_stims/flashlight/freeplay-jonta-flashlight.jpg,/static/Category_learning/Stimuli/Experimental_stims/train/train1.jpg,1.0,319.5,1.5,,,,,,,,,,,,,,,
305,,isi,,html-keyboard-response,305,402222,0.0-1.0-57.0-0.0-2.0,0,0,80,,,,,,55.0,,,,,1.0,,,,,,,,,,,,,,,,,,321.0,1.0,,,,,,,,,,,,,,,
306,,no_response,,html-keyboard-response,306,403229,0.0-1.0-57.0-0.0-4.0-0.0,0,0,80,,,,,,55.0,,,,,1.0,,,,,,,,,,,,,,,,,,322.0,1.0,,,,,,,,,,,,,,,
307,,iti,,html-keyboard-response,307,404753,0.0-1.0-57.0-0.0-5.0,0,0,80,,,,,,55.0,,,,,1.0,,,,,,,,,,,,,,,,,,323.0,1.5,,,,,,,,,,,,,,,
308,,choice,,html-keyboard-response,308,406225,0.0-1.0-57.0-0.1-0.1,0,0,80,,1468.0,,,50.0,55.0,55.0,1000.0,1500.0,0.0,1.0,0.0,20-80,,0.0,flashlight,train,20.0,80.0,flashlight14,train11,20.0,60.0,freeplay-jonta-flashlight.jpg,train1.jpg,/static/Category_learning/Stimuli/Experimental_stims/flashlight/freeplay-jonta-flashlight.jpg,/static/Category_learning/Stimuli/Experimental_stims/train/train1.jpg,0.0,324.5,1.468,1.0,flashlight,train,20.0,80.0,flashlight14,train11,20.0,60.0,,,,,,
309,,confirmation,,html-keyboard-response,309,406261,0.0-1.0-57.0-0.1-1.1-0.1,0,0,80,,,,,,55.0,,,,,1.0,,,,,,,,,,,,,,,,,,325.968,0.032,,,,,,,,,,,,,,,
310,,isi,,html-keyboard-response,310,407267,0.0-1.0-57.0-0.1-2.1,0,0,80,,,,,,55.0,,,,,1.0,,,,,,,,,,,,,,,,,,326.0,1.0,,,,,,,,,,,,,,,
311,,feedback,,html-keyboard-response,311,408275,0.0-1.0-57.0-0.1-3.1-0.1,0,0,80,,,,,,55.0,,,,,1.0,,,,,,,,,,,,,,,,,,327.0,1.0,,,,,,,,,,,,,,,
312,,iti,,html-keyboard-response,312,409778,0.0-1.0-57.0-0.1-5.1,0,0,80,,,,,,55.0,,,,,1.0,,,,,,,,,,,,,,,,,,328.0,1.5,,,,,,,,,,,,,,,
313,,choice,,html-keyboard-response,313,410650,0.0-1.0-58.0-0.0-0.0,0,0,80,,869.0,,,50.0,56.0,56.0,1000.0,1500.0,0.0,1.0,0.0,20-80,,0.0,fan,stool,20.0,80.0,fan12,stool9,0.0,100.0,116544_sk_lg.jpg,ASTOOL7.jpg,/static/Category_learning/Stimuli/Experimental_stims/fan/116544_sk_lg.jpg,/static/Category_learning/Stimuli/Experimental_stims/stool/ASTOOL7.jpg,0.0,329.5,0.869,1.0,fan,stool,20.0,80.0,fan12,stool9,0.0,100.0,,,,,,
314,,confirmation,,html-keyboard-response,314,411285,0.0-1.0-58.0-0.0-1.0-0.0,0,0,80,,,,,,56.0,,,,,1.0,,,,,,,,,,,,,,,,,,330.369,0.631,,,,,,,,,,,,,,,
315,,isi,,html-keyboard-response,315,412293,0.0-1.0-58.0-0.0-2.0,0,0,80,,,,,,56.0,,,,,1.0,,,,,,,,,,,,,,,,,,331.0,1.0,,,,,,,,,,,,,,,
316,,feedback,,html-keyboard-response,316,413299,0.0-1.0-58.0-0.0-3.0-0.0,0,0,80,,,,,,56.0,,,,,1.0,,,,,,,,,,,,,,,,,,332.0,1.0,,,,,,,,,,,,,,,
317,,iti,,html-keyboard-response,317,414805,0.0-1.0-58.0-0.0-5.0,0,0,80,,,,,,56.0,,,,,1.0,,,,,,,,,,,,,,,,,,333.0,1.5,,,,,,,,,,,,,,,
318,,choice,,html-keyboard-response,318,415196,0.0-1.0-59.0-0.0-0.0,0,0,80,,386.0,,,50.0,57.0,57.0,1500.0,1000.0,0.0,1.0,0.0,20-40,,1.0,motorcycle,bench,40.0,20.0,motorcycle12,bench4,40.0,0.0,motorcycle14.jpg,30892819.thl.jpg,/static/Category_learning/Stimuli/Experimental_stims/motorcycle/motorcycle14.jpg,/static/Category_learning/Stimuli/Experimental_stims/bench/30892819.thl.jpg,0.0,334.5,0.386,1.0,motorcycle,bench,40.0,20.0,motorcycle12,bench4,40.0,0.0,,,,,,
319,,confirmation,,html-keyboard-response,319,416318,0.0-1.0-59.0-0.0-1.0-0.0,0,0,80,,,,,,57.0,,,,,1.0,,,,,,,,,,,,,,,,,,334.886,1.114,,,,,,,,,,,,,,,
320,,isi,,html-keyboard-response,320,417822,0.0-1.0-59.0-0.0-2.0,0,0,80,,,,,,57.0,,,,,1.0,,,,,,,,,,,,,,,,,,336.0,1.5,,,,,,,,,,,,,,,
321,,feedback,,html-keyboard-response,321,418830,0.0-1.0-59.0-0.0-3.0-0.0,0,0,80,,,,,,57.0,,,,,1.0,,,,,,,,,,,,,,,,,,337.5,1.0,,,,,,,,,,,,,,,
322,,iti,,html-keyboard-response,322,419834,0.0-1.0-59.0-0.0-5.0,0,0,80,,,,,,57.0,,,,,1.0,,,,,,,,,,,,,,,,,,338.5,1.0,,,,,,,,,,,,,,,
323,,choice,,html-keyboard-response,323,420618,0.0-1.0-60.0-0.0-0.0,0,0,80,,780.0,,,50.0,58.0,58.0,1000.0,2000.0,0.0,1.0,1.0,20-60,0.0,,dresser,patio lounge chair,20.0,60.0,dresser6,patio lounge chair6,40.0,60.0,ADRESSE96.jpg,Lounge_Chair_with_Pillow.jpg,/static/Category_learning/Stimuli/Experimental_stims/dresser/ADRESSE96.jpg,/static/Category_learning/Stimuli/Experimental_stims/patio lounge chair/Lounge_Chair_with_Pillow.jpg,0.0,339.5,0.78,1.0,dresser,patio lounge chair,20.0,60.0,dresser6,patio lounge chair6,40.0,60.0,,,,,,
324,,confirmation,,html-keyboard-response,324,421342,0.0-1.0-60.0-0.0-1.0-0.0,0,0,80,,,,,,58.0,,,,,1.0,,,,,,,,,,,,,,,,,,340.28,0.72,,,,,,,,,,,,,,,
325,,isi,,html-keyboard-response,325,422347,0.0-1.0-60.0-0.0-2.0,0,0,80,,,,,,58.0,,,,,1.0,,,,,,,,,,,,,,,,,,341.0,1.0,,,,,,,,,,,,,,,
326,,feedback,,html-keyboard-response,326,423353,0.0-1.0-60.0-0.0-3.0-0.0,0,0,80,,,,,,58.0,,,,,1.0,,,,,,,,,,,,,,,,,,342.0,1.0,,,,,,,,,,,,,,,
327,,iti,,html-keyboard-response,327,425358,0.0-1.0-60.0-0.0-5.0,0,0,80,,,,,,58.0,,,,,1.0,,,,,,,,,,,,,,,,,,343.0,2.0,,,,,,,,,,,,,,,
328,,choice,,html-keyboard-response,328,426254,0.0-1.0-61.0-0.0-0.0,0,0,80,,892.0,,,50.0,59.0,59.0,2000.0,2000.0,0.0,1.0,0.0,40-80,,0.0,microscope,yarn,40.0,80.0,microscope12,yarn2,40.0,60.0,usbdigitalmicroscope1_small1.jpg,Aballofyarn66.jpg,/static/Category_learning/Stimuli/Experimental_stims/microscope/usbdigitalmicroscope1_small1.jpg,/static/Category_learning/Stimuli/Experimental_stims/yarn/Aballofyarn66.jpg,0.0,345.0,0.892,1.0,microscope,yarn,40.0,80.0,microscope12,yarn2,40.0,60.0,,,,,,
329,,confirmation,,html-keyboard-response,329,426866,0.0-1.0-61.0-0.0-1.0-0.0,0,0,80,,,,,,59.0,,,,,1.0,,,,,,,,,,,,,,,,,,345.892,0.608,,,,,,,,,,,,,,,
330,,isi,,html-keyboard-response,330,428872,0.0-1.0-61.0-0.0-2.0,0,0,80,,,,,,59.0,,,,,1.0,,,,,,,,,,,,,,,,,,346.5,2.0,,,,,,,,,,,,,,,
331,,feedback,,html-keyboard-response,331,429880,0.0-1.0-61.0-0.0-3.0-0.0,0,0,80,,,,,,59.0,,,,,1.0,,,,,,,,,,,,,,,,,,348.5,1.0,,,,,,,,,,,,,,,
332,,iti,,html-keyboard-response,332,431888,0.0-1.0-61.0-0.0-5.0,0,0,80,,,,,,59.0,,,,,1.0,,,,,,,,,,,,,,,,,,349.5,2.0,,,,,,,,,,,,,,,
333,,block_over,,html-keyboard-response,333,457826,0.0-1.0-61.0-0.0-7.0-0.0,0,0,80,,25930.0,,,83.0,59.0,,,,,,,,,,,,,,,,,,,,,,,,,,,,,,,,,,,,,,,
334,,start_run,,html-keyboard-response,334,459194,0.0-1.0-61.0-0.0-7.0-1.0,0,0,80,,1363.0,,,84.0,,,,,,,,,,,,,,,,,,,,,,,,,,,,,,,,,,,,,,,,
335,,choice,,html-keyboard-response,335,460082,0.0-1.0-62.0-0.0-0.0,0,0,80,,882.0,,,50.0,60.0,65.0,1000.0,1000.0,0.0,2.0,0.0,40-80,,1.0,watch,makeup compact,80.0,40.0,watch1,makeup compact9,80.0,40.0,B000B5K8XI.01-A2E7J74KJYV9ZH._AA280_SCLZZZZZZZ_V53007008_.jpg,b_102019.jpg,/static/Category_learning/Stimuli/Experimental_stims/watch/B000B5K8XI.01-A2E7J74KJYV9ZH._AA280_SCLZZZZZZZ_V53007008_.jpg,/static/Category_learning/Stimuli/Experimental_stims/makeup compact/b_102019.jpg,0.0,0.0,0.882,1.0,watch,makeup compact,80.0,40.0,watch1,makeup compact9,80.0,40.0,,,,,,
336,,confirmation,,html-keyboard-response,336,460704,0.0-1.0-62.0-0.0-1.0-0.0,0,0,80,,,,,,60.0,,,,,2.0,,,,,,,,,,,,,,,,,,0.882,0.618,,,,,,,,,,,,,,,
337,,isi,,html-keyboard-response,337,461710,0.0-1.0-62.0-0.0-2.0,0,0,80,,,,,,60.0,,,,,2.0,,,,,,,,,,,,,,,,,,1.5,1.0,,,,,,,,,,,,,,,
338,,feedback,,html-keyboard-response,338,462718,0.0-1.0-62.0-0.0-3.0-0.0,0,0,80,,,,,,60.0,,,,,2.0,,,,,,,,,,,,,,,,,,2.5,1.0,,,,,,,,,,,,,,,
339,,iti,,html-keyboard-response,339,463726,0.0-1.0-62.0-0.0-5.0,0,0,80,,,,,,60.0,,,,,2.0,,,,,,,,,,,,,,,,,,3.5,1.0,,,,,,,,,,,,,,,
340,,choice,,html-keyboard-response,340,463939,0.0-1.0-63.0-0.0-0.0,0,0,80,,210.0,,,50.0,61.0,66.0,3500.0,2000.0,0.0,2.0,0.0,20-80,,1.0,vase,bench,80.0,20.0,vase12,bench13,100.0,40.0,Abluevase2.jpg,ABROWNBE4.jpg,/static/Category_learning/Stimuli/Experimental_stims/vase/Abluevase2.jpg,/static/Category_learning/Stimuli/Experimental_stims/bench/ABROWNBE4.jpg,0.0,4.5,0.21,1.0,vase,bench,80.0,20.0,vase12,bench13,100.0,40.0,,,,,,
341,,confirmation,,html-keyboard-response,341,465235,0.0-1.0-63.0-0.0-1.0-0.0,0,0,80,,,,,,61.0,,,,,2.0,,,,,,,,,,,,,,,,,,4.71,1.29,,,,,,,,,,,,,,,
342,,isi,,html-keyboard-response,342,468744,0.0-1.0-63.0-0.0-2.0,0,0,80,,,,,,61.0,,,,,2.0,,,,,,,,,,,,,,,,,,6.0,3.5,,,,,,,,,,,,,,,
343,,feedback,,html-keyboard-response,343,469753,0.0-1.0-63.0-0.0-3.0-0.0,0,0,80,,,,,,61.0,,,,,2.0,,,,,,,,,,,,,,,,,,9.5,1.0,,,,,,,,,,,,,,,
344,,iti,,html-keyboard-response,344,471758,0.0-1.0-63.0-0.0-5.0,0,0,80,,,,,,61.0,,,,,2.0,,,,,,,,,,,,,,,,,,10.5,2.0,,,,,,,,,,,,,,,
345,,choice,,html-keyboard-response,345,472106,0.0-1.0-64.0-0.0-0.0,0,0,80,,344.0,,,50.0,62.0,67.0,1000.0,1000.0,0.0,2.0,0.0,20-80,,0.0,fan,trumpet,20.0,80.0,fan2,trumpet12,40.0,80.0,507349_sk_lg.jpg,hornabariton.jpg,/static/Category_learning/Stimuli/Experimental_stims/fan/507349_sk_lg.jpg,/static/Category_learning/Stimuli/Experimental_stims/trumpet/hornabariton.jpg,0.0,12.5,0.344,1.0,fan,trumpet,20.0,80.0,fan2,trumpet12,40.0,80.0,,,,,,
346,,confirmation,,html-keyboard-response,346,473267,0.0-1.0-64.0-0.0-1.0-0.0,0,0,80,,,,,,62.0,,,,,2.0,,,,,,,,,,,,,,,,,,12.844,1.156,,,,,,,,,,,,,,,
347,,isi,,html-keyboard-response,347,474274,0.0-1.0-64.0-0.0-2.0,0,0,80,,,,,,62.0,,,,,2.0,,,,,,,,,,,,,,,,,,14.0,1.0,,,,,,,,,,,,,,,
348,,feedback,,html-keyboard-response,348,475283,0.0-1.0-64.0-0.0-3.0-0.0,0,0,80,,,,,,62.0,,,,,2.0,,,,,,,,,,,,,,,,,,15.0,1.0,,,,,,,,,,,,,,,
349,,iti,,html-keyboard-response,349,476291,0.0-1.0-64.0-0.0-5.0,0,0,80,,,,,,62.0,,,,,2.0,,,,,,,,,,,,,,,,,,16.0,1.0,,,,,,,,,,,,,,,
350,,choice,,html-keyboard-response,350,476818,0.0-1.0-65.0-0.0-0.0,0,0,80,,522.0,,,50.0,63.0,68.0,2000.0,1000.0,0.0,2.0,0.0,60-60,,,pen,poker card,60.0,60.0,pen4,poker card9,80.0,80.0,Montblanc_Greta_Garbo_BP copy.jpg,9817230.thl.jpg,/static/Category_learning/Stimuli/Experimental_stims/pen/Montblanc_Greta_Garbo_BP copy.jpg,/static/Category_learning/Stimuli/Experimental_stims/poker card/9817230.thl.jpg,0.0,17.0,0.522,1.0,pen,poker card,60.0,60.0,pen4,poker card9,80.0,80.0,,,,,,
351,,confirmation,,html-keyboard-response,351,477799,0.0-1.0-65.0-0.0-1.0-0.0,0,0,80,,,,,,63.0,,,,,2.0,,,,,,,,,,,,,,,,,,17.522,0.978,,,,,,,,,,,,,,,
352,,isi,,html-keyboard-response,352,479803,0.0-1.0-65.0-0.0-2.0,0,0,80,,,,,,63.0,,,,,2.0,,,,,,,,,,,,,,,,,,18.5,2.0,,,,,,,,,,,,,,,
353,,feedback,,html-keyboard-response,353,480808,0.0-1.0-65.0-0.0-3.0-0.0,0,0,80,,,,,,63.0,,,,,2.0,,,,,,,,,,,,,,,,,,20.5,1.0,,,,,,,,,,,,,,,
354,,iti,,html-keyboard-response,354,481816,0.0-1.0-65.0-0.0-5.0,0,0,80,,,,,,63.0,,,,,2.0,,,,,,,,,,,,,,,,,,21.5,1.0,,,,,,,,,,,,,,,
355,,choice,,html-keyboard-response,355,482746,0.0-1.0-66.0-0.0-0.0,0,0,80,,927.0,,,50.0,64.0,69.0,1000.0,1000.0,0.0,2.0,0.0,20-20,,,baby carriage,fan,20.0,20.0,baby carriage9,fan11,0.0,0.0,Antique baby Carriage 7.jpg,n_sf.jpg,/static/Category_learning/Stimuli/Experimental_stims/baby carriage/Antique baby Carriage 7.jpg,/static/Category_learning/Stimuli/Experimental_stims/fan/n_sf.jpg,0.0,22.5,0.927,1.0,baby carriage,fan,20.0,20.0,baby carriage9,fan11,0.0,0.0,,,,,,
356,,confirmation,,html-keyboard-response,356,483323,0.0-1.0-66.0-0.0-1.0-0.0,0,0,80,,,,,,64.0,,,,,2.0,,,,,,,,,,,,,,,,,,23.427,0.573,,,,,,,,,,,,,,,
357,,isi,,html-keyboard-response,357,484328,0.0-1.0-66.0-0.0-2.0,0,0,80,,,,,,64.0,,,,,2.0,,,,,,,,,,,,,,,,,,24.0,1.0,,,,,,,,,,,,,,,
358,,feedback,,html-keyboard-response,358,485337,0.0-1.0-66.0-0.0-3.0-0.0,0,0,80,,,,,,64.0,,,,,2.0,,,,,,,,,,,,,,,,,,25.0,1.0,,,,,,,,,,,,,,,
359,,iti,,html-keyboard-response,359,486345,0.0-1.0-66.0-0.0-5.0,0,0,80,,,,,,64.0,,,,,2.0,,,,,,,,,,,,,,,,,,26.0,1.0,,,,,,,,,,,,,,,
360,,choice,,html-keyboard-response,360,487063,0.0-1.0-67.0-0.0-0.0,0,0,80,,714.0,,,50.0,65.0,70.0,1500.0,1000.0,0.0,2.0,0.0,20-80,,1.0,stool,dresser,80.0,20.0,stool2,dresser1,60.0,0.0,ASTOOL46.jpg,ADRESSE52.jpg,/static/Category_learning/Stimuli/Experimental_stims/stool/ASTOOL46.jpg,/static/Category_learning/Stimuli/Experimental_stims/dresser/ADRESSE52.jpg,0.0,27.0,0.714,1.0,stool,dresser,80.0,20.0,stool2,dresser1,60.0,0.0,,,,,,
361,,confirmation,,html-keyboard-response,361,487853,0.0-1.0-67.0-0.0-1.0-0.0,0,0,80,,,,,,65.0,,,,,2.0,,,,,,,,,,,,,,,,,,27.714,0.786,,,,,,,,,,,,,,,
362,,isi,,html-keyboard-response,362,489358,0.0-1.0-67.0-0.0-2.0,0,0,80,,,,,,65.0,,,,,2.0,,,,,,,,,,,,,,,,,,28.5,1.5,,,,,,,,,,,,,,,
363,,feedback,,html-keyboard-response,363,490366,0.0-1.0-67.0-0.0-3.0-0.0,0,0,80,,,,,,65.0,,,,,2.0,,,,,,,,,,,,,,,,,,30.0,1.0,,,,,,,,,,,,,,,
364,,iti,,html-keyboard-response,364,491373,0.0-1.0-67.0-0.0-5.0,0,0,80,,,,,,65.0,,,,,2.0,,,,,,,,,,,,,,,,,,31.0,1.0,,,,,,,,,,,,,,,
365,,choice,,html-keyboard-response,365,491384,0.0-1.0-68.0-0.0-0.0,0,0,80,,8.0,,,50.0,66.0,71.0,3500.0,2000.0,0.0,2.0,0.0,20-80,,0.0,desk,stool,20.0,80.0,desk4,stool11,40.0,60.0,AbbeyMiniRadialBIG(1).jpg,ASTOOL28.jpg,/static/Category_learning/Stimuli/Experimental_stims/desk/AbbeyMiniRadialBIG(1).jpg,/static/Category_learning/Stimuli/Experimental_stims/stool/ASTOOL28.jpg,0.0,32.0,0.008,1.0,desk,stool,20.0,80.0,desk4,stool11,40.0,60.0,,,,,,
366,,confirmation,,html-keyboard-response,366,492881,0.0-1.0-68.0-0.0-1.0-0.0,0,0,80,,,,,,66.0,,,,,2.0,,,,,,,,,,,,,,,,,,32.008,1.492,,,,,,,,,,,,,,,
367,,isi,,html-keyboard-response,367,496387,0.0-1.0-68.0-0.0-2.0,0,0,80,,,,,,66.0,,,,,2.0,,,,,,,,,,,,,,,,,,33.5,3.5,,,,,,,,,,,,,,,
368,,feedback,,html-keyboard-response,368,497395,0.0-1.0-68.0-0.0-3.0-0.0,0,0,80,,,,,,66.0,,,,,2.0,,,,,,,,,,,,,,,,,,37.0,1.0,,,,,,,,,,,,,,,
369,,iti,,html-keyboard-response,369,499403,0.0-1.0-68.0-0.0-5.0,0,0,80,,,,,,66.0,,,,,2.0,,,,,,,,,,,,,,,,,,38.0,2.0,,,,,,,,,,,,,,,
370,,choice,,html-keyboard-response,370,500338,0.0-1.0-69.0-0.0-0.0,0,0,80,,932.0,,,50.0,67.0,72.0,2000.0,1500.0,0.0,2.0,0.0,40-60,,0.0,license plate,poker card,40.0,60.0,license plate1,poker card2,40.0,60.0,il-423-3784.jpg,22864716.thl.jpg,/static/Category_learning/Stimuli/Experimental_stims/license plate/il-423-3784.jpg,/static/Category_learning/Stimuli/Experimental_stims/poker card/22864716.thl.jpg,0.0,40.0,0.932,1.0,license plate,poker card,40.0,60.0,license plate1,poker card2,40.0,60.0,,,,,,
371,,confirmation,,html-keyboard-response,371,500910,0.0-1.0-69.0-0.0-1.0-0.0,0,0,80,,,,,,67.0,,,,,2.0,,,,,,,,,,,,,,,,,,40.932,0.568,,,,,,,,,,,,,,,
372,,isi,,html-keyboard-response,372,502914,0.0-1.0-69.0-0.0-2.0,0,0,80,,,,,,67.0,,,,,2.0,,,,,,,,,,,,,,,,,,41.5,2.0,,,,,,,,,,,,,,,
373,,feedback,,html-keyboard-response,373,503920,0.0-1.0-69.0-0.0-3.0-0.0,0,0,80,,,,,,67.0,,,,,2.0,,,,,,,,,,,,,,,,,,43.5,1.0,,,,,,,,,,,,,,,
374,,iti,,html-keyboard-response,374,505427,0.0-1.0-69.0-0.0-5.0,0,0,80,,,,,,67.0,,,,,2.0,,,,,,,,,,,,,,,,,,44.5,1.5,,,,,,,,,,,,,,,
375,,choice,,html-keyboard-response,375,505802,0.0-1.0-70.0-0.0-0.0,0,0,80,,371.0,,,50.0,68.0,73.0,1500.0,1500.0,0.0,2.0,1.0,20-20,1.0,,desk,desk,20.0,20.0,desk10,desk4,20.0,40.0,MEX028.jpg,AbbeyMiniRadialBIG(1).jpg,/static/Category_learning/Stimuli/Experimental_stims/desk/MEX028.jpg,/static/Category_learning/Stimuli/Experimental_stims/desk/AbbeyMiniRadialBIG(1).jpg,0.0,46.0,0.371,1.0,desk,desk,20.0,20.0,desk10,desk4,20.0,40.0,,,,,,
376,,confirmation,,html-keyboard-response,376,506936,0.0-1.0-70.0-0.0-1.0-0.0,0,0,80,,,,,,68.0,,,,,2.0,,,,,,,,,,,,,,,,,,46.371,1.129,,,,,,,,,,,,,,,
377,,isi,,html-keyboard-response,377,508444,0.0-1.0-70.0-0.0-2.0,0,0,80,,,,,,68.0,,,,,2.0,,,,,,,,,,,,,,,,,,47.5,1.5,,,,,,,,,,,,,,,
378,,feedback,,html-keyboard-response,378,509453,0.0-1.0-70.0-0.0-3.0-0.0,0,0,80,,,,,,68.0,,,,,2.0,,,,,,,,,,,,,,,,,,49.0,1.0,,,,,,,,,,,,,,,
379,,iti,,html-keyboard-response,379,510958,0.0-1.0-70.0-0.0-5.0,0,0,80,,,,,,68.0,,,,,2.0,,,,,,,,,,,,,,,,,,50.0,1.5,,,,,,,,,,,,,,,
380,,choice,,html-keyboard-response,380,511402,0.0-1.0-71.0-0.0-0.0,0,0,80,,440.0,,,50.0,69.0,74.0,1000.0,2000.0,0.0,2.0,0.0,20-60,,0.0,flashlight,poker card,20.0,60.0,flashlight8,poker card12,40.0,80.0,Streamlight-Stinger-Rechargeable-Flashlight-with-Charger-Black-75014-B00008BFSI-L.jpg,22865676.thl.jpg,/static/Category_learning/Stimuli/Experimental_stims/flashlight/Streamlight-Stinger-Rechargeable-Flashlight-with-Charger-Black-75014-B00008BFSI-L.jpg,/static/Category_learning/Stimuli/Experimental_stims/poker card/22865676.thl.jpg,0.0,51.5,0.44,1.0,flashlight,poker card,20.0,60.0,flashlight8,poker card12,40.0,80.0,,,,,,
381,,confirmation,,html-keyboard-response,381,512467,0.0-1.0-71.0-0.0-1.0-0.0,0,0,80,,,,,,69.0,,,,,2.0,,,,,,,,,,,,,,,,,,51.94,1.06,,,,,,,,,,,,,,,
382,,isi,,html-keyboard-response,382,513476,0.0-1.0-71.0-0.0-2.0,0,0,80,,,,,,69.0,,,,,2.0,,,,,,,,,,,,,,,,,,53.0,1.0,,,,,,,,,,,,,,,
383,,feedback,,html-keyboard-response,383,514483,0.0-1.0-71.0-0.0-3.0-0.0,0,0,80,,,,,,69.0,,,,,2.0,,,,,,,,,,,,,,,,,,54.0,1.0,,,,,,,,,,,,,,,
384,,iti,,html-keyboard-response,384,516489,0.0-1.0-71.0-0.0-5.0,0,0,80,,,,,,69.0,,,,,2.0,,,,,,,,,,,,,,,,,,55.0,2.0,,,,,,,,,,,,,,,
385,,choice,,html-keyboard-response,385,516808,0.0-1.0-72.0-0.0-0.0,0,0,80,,315.0,,,50.0,70.0,75.0,1500.0,1000.0,0.0,2.0,0.0,20-80,,0.0,bongo,stool,20.0,80.0,bongo3,stool4,20.0,60.0,26390697.thl.jpg,ASTOOL22.jpg,/static/Category_learning/Stimuli/Experimental_stims/bongo/26390697.thl.jpg,/static/Category_learning/Stimuli/Experimental_stims/stool/ASTOOL22.jpg,0.0,57.0,0.315,1.0,bongo,stool,20.0,80.0,bongo3,stool4,20.0,60.0,,,,,,
386,,confirmation,,html-keyboard-response,386,517998,0.0-1.0-72.0-0.0-1.0-0.0,0,0,80,,,,,,70.0,,,,,2.0,,,,,,,,,,,,,,,,,,57.315,1.185,,,,,,,,,,,,,,,
387,,isi,,html-keyboard-response,387,519502,0.0-1.0-72.0-0.0-2.0,0,0,80,,,,,,70.0,,,,,2.0,,,,,,,,,,,,,,,,,,58.5,1.5,,,,,,,,,,,,,,,
388,,feedback,,html-keyboard-response,388,520510,0.0-1.0-72.0-0.0-3.0-0.0,0,0,80,,,,,,70.0,,,,,2.0,,,,,,,,,,,,,,,,,,60.0,1.0,,,,,,,,,,,,,,,
389,,iti,,html-keyboard-response,389,521518,0.0-1.0-72.0-0.0-5.0,0,0,80,,,,,,70.0,,,,,2.0,,,,,,,,,,,,,,,,,,61.0,1.0,,,,,,,,,,,,,,,
390,,choice,,html-keyboard-response,390,522234,0.0-1.0-73.0-0.0-0.0,0,0,80,,712.0,,,50.0,71.0,76.0,3000.0,2000.0,0.0,2.0,0.0,40-40,,,makeup compact,motorcycle,40.0,40.0,makeup compact6,motorcycle8,20.0,20.0,P0754_hero.jpg,Motorcycle903425j2.jpg,/static/Category_learning/Stimuli/Experimental_stims/makeup compact/P0754_hero.jpg,/static/Category_learning/Stimuli/Experimental_stims/motorcycle/Motorcycle903425j2.jpg,0.0,62.0,0.712,1.0,makeup compact,motorcycle,40.0,40.0,makeup compact6,motorcycle8,20.0,20.0,,,,,,
391,,confirmation,,html-keyboard-response,391,523028,0.0-1.0-73.0-0.0-1.0-0.0,0,0,80,,,,,,71.0,,,,,2.0,,,,,,,,,,,,,,,,,,62.712,0.788,,,,,,,,,,,,,,,
392,,isi,,html-keyboard-response,392,526036,0.0-1.0-73.0-0.0-2.0,0,0,80,,,,,,71.0,,,,,2.0,,,,,,,,,,,,,,,,,,63.5,3.0,,,,,,,,,,,,,,,
393,,feedback,,html-keyboard-response,393,527042,0.0-1.0-73.0-0.0-3.0-0.0,0,0,80,,,,,,71.0,,,,,2.0,,,,,,,,,,,,,,,,,,66.5,1.0,,,,,,,,,,,,,,,
394,,iti,,html-keyboard-response,394,529049,0.0-1.0-73.0-0.0-5.0,0,0,80,,,,,,71.0,,,,,2.0,,,,,,,,,,,,,,,,,,67.5,2.0,,,,,,,,,,,,,,,
395,,choice,,html-keyboard-response,395,529625,0.0-1.0-74.0-0.0-0.0,0,0,80,,572.0,,,50.0,72.0,77.0,3000.0,1000.0,0.0,2.0,1.0,20-20,1.0,,bongo,bongo,20.0,20.0,bongo3,bongo13,20.0,0.0,26390697.thl.jpg,26388718.thl.jpg,/static/Category_learning/Stimuli/Experimental_stims/bongo/26390697.thl.jpg,/static/Category_learning/Stimuli/Experimental_stims/bongo/26388718.thl.jpg,0.0,69.5,0.572,1.0,bongo,bongo,20.0,20.0,bongo3,bongo13,20.0,0.0,,,,,,
396,,confirmation,,html-keyboard-response,396,530558,0.0-1.0-74.0-0.0-1.0-0.0,0,0,80,,,,,,72.0,,,,,2.0,,,,,,,,,,,,,,,,,,70.072,0.928,,,,,,,,,,,,,,,
397,,isi,,html-keyboard-response,397,533566,0.0-1.0-74.0-0.0-2.0,0,0,80,,,,,,72.0,,,,,2.0,,,,,,,,,,,,,,,,,,71.0,3.0,,,,,,,,,,,,,,,
398,,feedback,,html-keyboard-response,398,534574,0.0-1.0-74.0-0.0-3.0-0.0,0,0,80,,,,,,72.0,,,,,2.0,,,,,,,,,,,,,,,,,,74.0,1.0,,,,,,,,,,,,,,,
399,,iti,,html-keyboard-response,399,535581,0.0-1.0-74.0-0.0-5.0,0,0,80,,,,,,72.0,,,,,2.0,,,,,,,,,,,,,,,,,,75.0,1.0,,,,,,,,,,,,,,,
400,,choice,,html-keyboard-response,400,535882,0.0-1.0-75.0-0.0-0.0,0,0,80,,297.0,,,50.0,73.0,78.0,1500.0,1000.0,0.0,2.0,0.0,60-60,,,patio lounge chair,pen,60.0,60.0,patio lounge chair9,pen6,60.0,40.0,43-3.jpg,executive_pen2.jpg,/static/Category_learning/Stimuli/Experimental_stims/patio lounge chair/43-3.jpg,/static/Category_learning/Stimuli/Experimental_stims/pen/executive_pen2.jpg,0.0,76.0,0.297,1.0,patio lounge chair,pen,60.0,60.0,patio lounge chair9,pen6,60.0,40.0,,,,,,
401,,confirmation,,html-keyboard-response,401,537088,0.0-1.0-75.0-0.0-1.0-0.0,0,0,80,,,,,,73.0,,,,,2.0,,,,,,,,,,,,,,,,,,76.297,1.203,,,,,,,,,,,,,,,
402,,isi,,html-keyboard-response,402,538594,0.0-1.0-75.0-0.0-2.0,0,0,80,,,,,,73.0,,,,,2.0,,,,,,,,,,,,,,,,,,77.5,1.5,,,,,,,,,,,,,,,
403,,feedback,,html-keyboard-response,403,539600,0.0-1.0-75.0-0.0-3.0-0.0,0,0,80,,,,,,73.0,,,,,2.0,,,,,,,,,,,,,,,,,,79.0,1.0,,,,,,,,,,,,,,,
404,,iti,,html-keyboard-response,404,540605,0.0-1.0-75.0-0.0-5.0,0,0,80,,,,,,73.0,,,,,2.0,,,,,,,,,,,,,,,,,,80.0,1.0,,,,,,,,,,,,,,,
405,,choice,,html-keyboard-response,405,542109,0.0-1.0-76.0-0.0-0.0,0,0,80,,,,,,74.0,79.0,1000.0,2000.0,0.0,2.0,1.0,20-20,1.0,,fan,fan,20.0,20.0,fan2,fan12,40.0,0.0,507349_sk_lg.jpg,116544_sk_lg.jpg,/static/Category_learning/Stimuli/Experimental_stims/fan/507349_sk_lg.jpg,/static/Category_learning/Stimuli/Experimental_stims/fan/116544_sk_lg.jpg,1.0,81.0,1.5,,,,,,,,,,,,,,,
406,,isi,,html-keyboard-response,406,543113,0.0-1.0-76.0-0.0-2.0,0,0,80,,,,,,74.0,,,,,2.0,,,,,,,,,,,,,,,,,,82.5,1.0,,,,,,,,,,,,,,,
407,,no_response,,html-keyboard-response,407,544121,0.0-1.0-76.0-0.0-4.0-0.0,0,0,80,,,,,,74.0,,,,,2.0,,,,,,,,,,,,,,,,,,83.5,1.0,,,,,,,,,,,,,,,
408,,iti,,html-keyboard-response,408,546147,0.0-1.0-76.0-0.0-5.0,0,0,80,,,,,,74.0,,,,,2.0,,,,,,,,,,,,,,,,,,84.5,2.0,,,,,,,,,,,,,,,
409,,choice,,html-keyboard-response,409,547657,0.0-1.0-76.0-0.1-0.1,0,0,80,,,,,,74.0,79.0,1000.0,2000.0,0.0,2.0,1.0,20-20,1.0,,fan,fan,20.0,20.0,fan2,fan12,40.0,0.0,507349_sk_lg.jpg,116544_sk_lg.jpg,/static/Category_learning/Stimuli/Experimental_stims/fan/507349_sk_lg.jpg,/static/Category_learning/Stimuli/Experimental_stims/fan/116544_sk_lg.jpg,1.0,86.5,1.5,,,,,,,,,,,,,,,
410,,isi,,html-keyboard-response,410,549161,0.0-1.0-76.0-0.1-2.1,0,0,80,,,,,,74.0,,,,,2.0,,,,,,,,,,,,,,,,,,88.0,1.5,,,,,,,,,,,,,,,
411,,no_response,,html-keyboard-response,411,550167,0.0-1.0-76.0-0.1-4.1-0.1,0,0,80,,,,,,74.0,,,,,2.0,,,,,,,,,,,,,,,,,,89.5,1.0,,,,,,,,,,,,,,,
412,,iti,,html-keyboard-response,412,552186,0.0-1.0-76.0-0.1-5.1,0,0,80,,,,,,74.0,,,,,2.0,,,,,,,,,,,,,,,,,,90.5,2.0,,,,,,,,,,,,,,,
413,,choice,,html-keyboard-response,413,553204,0.0-1.0-76.0-0.2-0.2,0,0,80,,1014.0,,,50.0,74.0,79.0,1000.0,2000.0,0.0,2.0,1.0,20-20,1.0,,fan,fan,20.0,20.0,fan2,fan12,40.0,0.0,507349_sk_lg.jpg,116544_sk_lg.jpg,/static/Category_learning/Stimuli/Experimental_stims/fan/507349_sk_lg.jpg,/static/Category_learning/Stimuli/Experimental_stims/fan/116544_sk_lg.jpg,0.0,92.5,1.014,1.0,fan,fan,20.0,20.0,fan2,fan12,40.0,0.0,,,,,,
414,,confirmation,,html-keyboard-response,414,553693,0.0-1.0-76.0-0.2-1.2-0.2,0,0,80,,,,,,74.0,,,,,2.0,,,,,,,,,,,,,,,,,,93.514,0.486,,,,,,,,,,,,,,,
415,,isi,,html-keyboard-response,415,555699,0.0-1.0-76.0-0.2-2.2,0,0,80,,,,,,74.0,,,,,2.0,,,,,,,,,,,,,,,,,,94.0,2.0,,,,,,,,,,,,,,,
416,,feedback,,html-keyboard-response,416,556707,0.0-1.0-76.0-0.2-3.2-0.2,0,0,80,,,,,,74.0,,,,,2.0,,,,,,,,,,,,,,,,,,96.0,1.0,,,,,,,,,,,,,,,
417,,iti,,html-keyboard-response,417,558713,0.0-1.0-76.0-0.2-5.2,0,0,80,,,,,,74.0,,,,,2.0,,,,,,,,,,,,,,,,,,97.0,2.0,,,,,,,,,,,,,,,
418,,choice,,html-keyboard-response,418,559714,0.0-1.0-77.0-0.0-0.0,0,0,80,,997.0,,,50.0,75.0,80.0,2000.0,1000.0,0.0,2.0,0.0,20-60,,0.0,bowl,necklace,20.0,60.0,bowl7,necklace4,20.0,40.0,Abowl54.jpg,emerald_diamond_necklace.jpg,/static/Category_learning/Stimuli/Experimental_stims/bowl/Abowl54.jpg,/static/Category_learning/Stimuli/Experimental_stims/necklace/emerald_diamond_necklace.jpg,0.0,99.0,0.997,1.0,bowl,necklace,20.0,60.0,bowl7,necklace4,20.0,40.0,,,,,,
419,,confirmation,,html-keyboard-response,419,560221,0.0-1.0-77.0-0.0-1.0-0.0,0,0,80,,,,,,75.0,,,,,2.0,,,,,,,,,,,,,,,,,,99.997,0.503,,,,,,,,,,,,,,,
420,,isi,,html-keyboard-response,420,562227,0.0-1.0-77.0-0.0-2.0,0,0,80,,,,,,75.0,,,,,2.0,,,,,,,,,,,,,,,,,,100.5,2.0,,,,,,,,,,,,,,,
421,,feedback,,html-keyboard-response,421,563235,0.0-1.0-77.0-0.0-3.0-0.0,0,0,80,,,,,,75.0,,,,,2.0,,,,,,,,,,,,,,,,,,102.5,1.0,,,,,,,,,,,,,,,
422,,iti,,html-keyboard-response,422,564243,0.0-1.0-77.0-0.0-5.0,0,0,80,,,,,,75.0,,,,,2.0,,,,,,,,,,,,,,,,,,103.5,1.0,,,,,,,,,,,,,,,
423,,choice,,html-keyboard-response,423,564859,0.0-1.0-78.0-0.0-0.0,0,0,80,,612.0,,,50.0,76.0,81.0,1500.0,1000.0,0.0,2.0,0.0,20-80,,1.0,vase,bongo,80.0,20.0,vase11,bongo12,100.0,40.0,Ethnic_Ceramic_Vase.jpg,26686609.thl.jpg,/static/Category_learning/Stimuli/Experimental_stims/vase/Ethnic_Ceramic_Vase.jpg,/static/Category_learning/Stimuli/Experimental_stims/bongo/26686609.thl.jpg,0.0,104.5,0.612,1.0,vase,bongo,80.0,20.0,vase11,bongo12,100.0,40.0,,,,,,
424,,confirmation,,html-keyboard-response,424,565752,0.0-1.0-78.0-0.0-1.0-0.0,0,0,80,,,,,,76.0,,,,,2.0,,,,,,,,,,,,,,,,,,105.112,0.888,,,,,,,,,,,,,,,
425,,isi,,html-keyboard-response,425,567257,0.0-1.0-78.0-0.0-2.0,0,0,80,,,,,,76.0,,,,,2.0,,,,,,,,,,,,,,,,,,106.0,1.5,,,,,,,,,,,,,,,
426,,feedback,,html-keyboard-response,426,568265,0.0-1.0-78.0-0.0-3.0-0.0,0,0,80,,,,,,76.0,,,,,2.0,,,,,,,,,,,,,,,,,,107.5,1.0,,,,,,,,,,,,,,,
427,,iti,,html-keyboard-response,427,569273,0.0-1.0-78.0-0.0-5.0,0,0,80,,,,,,76.0,,,,,2.0,,,,,,,,,,,,,,,,,,108.5,1.0,,,,,,,,,,,,,,,
428,,choice,,html-keyboard-response,428,569522,0.0-1.0-79.0-0.0-0.0,0,0,80,,245.0,,,50.0,77.0,82.0,1000.0,1500.0,0.0,2.0,0.0,40-80,,1.0,yarn,makeup compact,80.0,40.0,yarn10,makeup compact7,60.0,20.0,revelation-yarn.jpg,P187133_hero.jpg,/static/Category_learning/Stimuli/Experimental_stims/yarn/revelation-yarn.jpg,/static/Category_learning/Stimuli/Experimental_stims/makeup compact/P187133_hero.jpg,0.0,109.5,0.245,1.0,yarn,makeup compact,80.0,40.0,yarn10,makeup compact7,60.0,20.0,,,,,,
429,,confirmation,,html-keyboard-response,429,570781,0.0-1.0-79.0-0.0-1.0-0.0,0,0,80,,,,,,77.0,,,,,2.0,,,,,,,,,,,,,,,,,,109.745,1.255,,,,,,,,,,,,,,,
430,,isi,,html-keyboard-response,430,571789,0.0-1.0-79.0-0.0-2.0,0,0,80,,,,,,77.0,,,,,2.0,,,,,,,,,,,,,,,,,,111.0,1.0,,,,,,,,,,,,,,,
431,,feedback,,html-keyboard-response,431,572793,0.0-1.0-79.0-0.0-3.0-0.0,0,0,80,,,,,,77.0,,,,,2.0,,,,,,,,,,,,,,,,,,112.0,1.0,,,,,,,,,,,,,,,
432,,iti,,html-keyboard-response,432,574297,0.0-1.0-79.0-0.0-5.0,0,0,80,,,,,,77.0,,,,,2.0,,,,,,,,,,,,,,,,,,113.0,1.5,,,,,,,,,,,,,,,
433,,choice,,html-keyboard-response,433,574514,0.0-1.0-80.0-0.0-0.0,0,0,80,,212.0,,,50.0,78.0,83.0,1000.0,2000.0,0.0,2.0,1.0,80-80,1.0,,vase,vase,80.0,80.0,vase11,vase12,100.0,100.0,Ethnic_Ceramic_Vase.jpg,Abluevase2.jpg,/static/Category_learning/Stimuli/Experimental_stims/vase/Ethnic_Ceramic_Vase.jpg,/static/Category_learning/Stimuli/Experimental_stims/vase/Abluevase2.jpg,0.0,114.5,0.212,1.0,vase,vase,80.0,80.0,vase11,vase12,100.0,100.0,,,,,,
434,,confirmation,,html-keyboard-response,434,575807,0.0-1.0-80.0-0.0-1.0-0.0,0,0,80,,,,,,78.0,,,,,2.0,,,,,,,,,,,,,,,,,,114.712,1.288,,,,,,,,,,,,,,,
435,,isi,,html-keyboard-response,435,576814,0.0-1.0-80.0-0.0-2.0,0,0,80,,,,,,78.0,,,,,2.0,,,,,,,,,,,,,,,,,,116.0,1.0,,,,,,,,,,,,,,,
436,,feedback,,html-keyboard-response,436,577821,0.0-1.0-80.0-0.0-3.0-0.0,0,0,80,,,,,,78.0,,,,,2.0,,,,,,,,,,,,,,,,,,117.0,1.0,,,,,,,,,,,,,,,
437,,iti,,html-keyboard-response,437,579828,0.0-1.0-80.0-0.0-5.0,0,0,80,,,,,,78.0,,,,,2.0,,,,,,,,,,,,,,,,,,118.0,2.0,,,,,,,,,,,,,,,
438,,choice,,html-keyboard-response,438,581337,0.0-1.0-81.0-0.0-0.0,0,0,80,,,,,,79.0,84.0,1500.0,1000.0,0.0,2.0,0.0,20-60,,1.0,sofa,door knob,60.0,20.0,sofa14,door knob3,40.0,40.0,HENRY-Sofa-falg8068-05-72X34X34.jpg,020f7ec6-df08-40fa-b3a5-0dcfb762f085_4.jpg,/static/Category_learning/Stimuli/Experimental_stims/sofa/HENRY-Sofa-falg8068-05-72X34X34.jpg,/static/Category_learning/Stimuli/Experimental_stims/door knob/020f7ec6-df08-40fa-b3a5-0dcfb762f085_4.jpg,1.0,120.0,1.5,,,,,,,,,,,,,,,
439,,isi,,html-keyboard-response,439,582844,0.0-1.0-81.0-0.0-2.0,0,0,80,,,,,,79.0,,,,,2.0,,,,,,,,,,,,,,,,,,121.5,1.5,,,,,,,,,,,,,,,
440,,no_response,,html-keyboard-response,440,583849,0.0-1.0-81.0-0.0-4.0-0.0,0,0,80,,,,,,79.0,,,,,2.0,,,,,,,,,,,,,,,,,,123.0,1.0,,,,,,,,,,,,,,,
441,,iti,,html-keyboard-response,441,584873,0.0-1.0-81.0-0.0-5.0,0,0,80,,,,,,79.0,,,,,2.0,,,,,,,,,,,,,,,,,,124.0,1.0,,,,,,,,,,,,,,,
442,,choice,,html-keyboard-response,442,585395,0.0-1.0-81.0-0.1-0.1,0,0,80,,518.0,,,50.0,79.0,84.0,1500.0,1000.0,0.0,2.0,0.0,20-60,,1.0,sofa,door knob,60.0,20.0,sofa14,door knob3,40.0,40.0,HENRY-Sofa-falg8068-05-72X34X34.jpg,020f7ec6-df08-40fa-b3a5-0dcfb762f085_4.jpg,/static/Category_learning/Stimuli/Experimental_stims/sofa/HENRY-Sofa-falg8068-05-72X34X34.jpg,/static/Category_learning/Stimuli/Experimental_stims/door knob/020f7ec6-df08-40fa-b3a5-0dcfb762f085_4.jpg,0.0,125.0,0.518,1.0,sofa,door knob,60.0,20.0,sofa14,door knob3,40.0,40.0,,,,,,
443,,confirmation,,html-keyboard-response,443,586382,0.0-1.0-81.0-0.1-1.1-0.1,0,0,80,,,,,,79.0,,,,,2.0,,,,,,,,,,,,,,,,,,125.518,0.982,,,,,,,,,,,,,,,
444,,isi,,html-keyboard-response,444,588387,0.0-1.0-81.0-0.1-2.1,0,0,80,,,,,,79.0,,,,,2.0,,,,,,,,,,,,,,,,,,126.5,2.0,,,,,,,,,,,,,,,
445,,feedback,,html-keyboard-response,445,589396,0.0-1.0-81.0-0.1-3.1-0.1,0,0,80,,,,,,79.0,,,,,2.0,,,,,,,,,,,,,,,,,,128.5,1.0,,,,,,,,,,,,,,,
446,,iti,,html-keyboard-response,446,590402,0.0-1.0-81.0-0.1-5.1,0,0,80,,,,,,79.0,,,,,2.0,,,,,,,,,,,,,,,,,,129.5,1.0,,,,,,,,,,,,,,,
447,,choice,,html-keyboard-response,447,591347,0.0-1.0-82.0-0.0-0.0,0,0,80,,941.0,,,50.0,80.0,85.0,3000.0,1000.0,0.0,2.0,1.0,20-20,1.0,,flashlight,flashlight,20.0,20.0,flashlight8,flashlight14,40.0,20.0,Streamlight-Stinger-Rechargeable-Flashlight-with-Charger-Black-75014-B00008BFSI-L.jpg,freeplay-jonta-flashlight.jpg,/static/Category_learning/Stimuli/Experimental_stims/flashlight/Streamlight-Stinger-Rechargeable-Flashlight-with-Charger-Black-75014-B00008BFSI-L.jpg,/static/Category_learning/Stimuli/Experimental_stims/flashlight/freeplay-jonta-flashlight.jpg,0.0,130.5,0.941,1.0,flashlight,flashlight,20.0,20.0,flashlight8,flashlight14,40.0,20.0,,,,,,
448,,confirmation,,html-keyboard-response,448,591910,0.0-1.0-82.0-0.0-1.0-0.0,0,0,80,,,,,,80.0,,,,,2.0,,,,,,,,,,,,,,,,,,131.441,0.559,,,,,,,,,,,,,,,
449,,isi,,html-keyboard-response,449,594915,0.0-1.0-82.0-0.0-2.0,0,0,80,,,,,,80.0,,,,,2.0,,,,,,,,,,,,,,,,,,132.0,3.0,,,,,,,,,,,,,,,
450,,feedback,,html-keyboard-response,450,595923,0.0-1.0-82.0-0.0-3.0-0.0,0,0,80,,,,,,80.0,,,,,2.0,,,,,,,,,,,,,,,,,,135.0,1.0,,,,,,,,,,,,,,,
451,,iti,,html-keyboard-response,451,596931,0.0-1.0-82.0-0.0-5.0,0,0,80,,,,,,80.0,,,,,2.0,,,,,,,,,,,,,,,,,,136.0,1.0,,,,,,,,,,,,,,,
452,,choice,,html-keyboard-response,452,598441,0.0-1.0-83.0-0.0-0.0,0,0,80,,,,,,81.0,86.0,2000.0,1500.0,0.0,2.0,0.0,20-20,,,fan,bowl,20.0,20.0,fan3,bowl1,20.0,0.0,CFT401.jpg,ABOWLS6.jpg,/static/Category_learning/Stimuli/Experimental_stims/fan/CFT401.jpg,/static/Category_learning/Stimuli/Experimental_stims/bowl/ABOWLS6.jpg,1.0,137.0,1.5,,,,,,,,,,,,,,,
453,,isi,,html-keyboard-response,453,600449,0.0-1.0-83.0-0.0-2.0,0,0,80,,,,,,81.0,,,,,2.0,,,,,,,,,,,,,,,,,,138.5,2.0,,,,,,,,,,,,,,,
454,,no_response,,html-keyboard-response,454,601453,0.0-1.0-83.0-0.0-4.0-0.0,0,0,80,,,,,,81.0,,,,,2.0,,,,,,,,,,,,,,,,,,140.5,1.0,,,,,,,,,,,,,,,
455,,iti,,html-keyboard-response,455,602974,0.0-1.0-83.0-0.0-5.0,0,0,80,,,,,,81.0,,,,,2.0,,,,,,,,,,,,,,,,,,141.5,1.5,,,,,,,,,,,,,,,
456,,choice,,html-keyboard-response,456,603682,0.0-1.0-83.0-0.1-0.1,0,0,80,,704.0,,,50.0,81.0,86.0,2000.0,1500.0,0.0,2.0,0.0,20-20,,,fan,bowl,20.0,20.0,fan3,bowl1,20.0,0.0,CFT401.jpg,ABOWLS6.jpg,/static/Category_learning/Stimuli/Experimental_stims/fan/CFT401.jpg,/static/Category_learning/Stimuli/Experimental_stims/bowl/ABOWLS6.jpg,0.0,143.0,0.704,1.0,fan,bowl,20.0,20.0,fan3,bowl1,20.0,0.0,,,,,,
457,,confirmation,,html-keyboard-response,457,604481,0.0-1.0-83.0-0.1-1.1-0.1,0,0,80,,,,,,81.0,,,,,2.0,,,,,,,,,,,,,,,,,,143.704,0.796,,,,,,,,,,,,,,,
458,,isi,,html-keyboard-response,458,605486,0.0-1.0-83.0-0.1-2.1,0,0,80,,,,,,81.0,,,,,2.0,,,,,,,,,,,,,,,,,,144.5,1.0,,,,,,,,,,,,,,,
459,,feedback,,html-keyboard-response,459,606491,0.0-1.0-83.0-0.1-3.1-0.1,0,0,80,,,,,,81.0,,,,,2.0,,,,,,,,,,,,,,,,,,145.5,1.0,,,,,,,,,,,,,,,
460,,iti,,html-keyboard-response,460,609998,0.0-1.0-83.0-0.1-5.1,0,0,80,,,,,,81.0,,,,,2.0,,,,,,,,,,,,,,,,,,146.5,3.5,,,,,,,,,,,,,,,
461,,choice,,html-keyboard-response,461,611443,0.0-1.0-84.0-0.0-0.0,0,0,80,,1441.0,,,50.0,82.0,87.0,1000.0,1500.0,0.0,2.0,1.0,60-60,1.0,,sofa,sofa,60.0,60.0,sofa4,sofa14,40.0,40.0,ALOVSEA15.jpg,HENRY-Sofa-falg8068-05-72X34X34.jpg,/static/Category_learning/Stimuli/Experimental_stims/sofa/ALOVSEA15.jpg,/static/Category_learning/Stimuli/Experimental_stims/sofa/HENRY-Sofa-falg8068-05-72X34X34.jpg,0.0,150.0,1.441,1.0,sofa,sofa,60.0,60.0,sofa4,sofa14,40.0,40.0,,,,,,
462,,confirmation,,html-keyboard-response,462,611507,0.0-1.0-84.0-0.0-1.0-0.0,0,0,80,,,,,,82.0,,,,,2.0,,,,,,,,,,,,,,,,,,151.441,0.059,,,,,,,,,,,,,,,
463,,isi,,html-keyboard-response,463,612515,0.0-1.0-84.0-0.0-2.0,0,0,80,,,,,,82.0,,,,,2.0,,,,,,,,,,,,,,,,,,151.5,1.0,,,,,,,,,,,,,,,
464,,feedback,,html-keyboard-response,464,613523,0.0-1.0-84.0-0.0-3.0-0.0,0,0,80,,,,,,82.0,,,,,2.0,,,,,,,,,,,,,,,,,,152.5,1.0,,,,,,,,,,,,,,,
465,,iti,,html-keyboard-response,465,615030,0.0-1.0-84.0-0.0-5.0,0,0,80,,,,,,82.0,,,,,2.0,,,,,,,,,,,,,,,,,,153.5,1.5,,,,,,,,,,,,,,,
466,,choice,,html-keyboard-response,466,615955,0.0-1.0-85.0-0.0-0.0,0,0,80,,920.0,,,50.0,83.0,88.0,1000.0,1000.0,0.0,2.0,0.0,40-60,,0.0,hammer,power strip,40.0,60.0,hammer7,power strip13,60.0,60.0,hammer01.jpg,01dccef1-d4b2-4d2e-a317-f2ed46b70b4b_400.jpg,/static/Category_learning/Stimuli/Experimental_stims/hammer/hammer01.jpg,/static/Category_learning/Stimuli/Experimental_stims/power strip/01dccef1-d4b2-4d2e-a317-f2ed46b70b4b_400.jpg,0.0,155.0,0.92,1.0,hammer,power strip,40.0,60.0,hammer7,power strip13,60.0,60.0,,,,,,
467,,confirmation,,html-keyboard-response,467,616539,0.0-1.0-85.0-0.0-1.0-0.0,0,0,80,,,,,,83.0,,,,,2.0,,,,,,,,,,,,,,,,,,155.92,0.58,,,,,,,,,,,,,,,
468,,isi,,html-keyboard-response,468,617546,0.0-1.0-85.0-0.0-2.0,0,0,80,,,,,,83.0,,,,,2.0,,,,,,,,,,,,,,,,,,156.5,1.0,,,,,,,,,,,,,,,
469,,feedback,,html-keyboard-response,469,618552,0.0-1.0-85.0-0.0-3.0-0.0,0,0,80,,,,,,83.0,,,,,2.0,,,,,,,,,,,,,,,,,,157.5,1.0,,,,,,,,,,,,,,,
470,,iti,,html-keyboard-response,470,619559,0.0-1.0-85.0-0.0-5.0,0,0,80,,,,,,83.0,,,,,2.0,,,,,,,,,,,,,,,,,,158.5,1.0,,,,,,,,,,,,,,,
471,,choice,,html-keyboard-response,471,620275,0.0-1.0-86.0-0.0-0.0,0,0,80,,713.0,,,50.0,84.0,89.0,1500.0,3500.0,0.0,2.0,0.0,20-60,,0.0,baby carriage,poker card,20.0,60.0,baby carriage10,poker card7,0.0,80.0,peg_perego_uno_blu.jpg,22864416.thl.jpg,/static/Category_learning/Stimuli/Experimental_stims/baby carriage/peg_perego_uno_blu.jpg,/static/Category_learning/Stimuli/Experimental_stims/poker card/22864416.thl.jpg,0.0,159.5,0.713,1.0,baby carriage,poker card,20.0,60.0,baby carriage10,poker card7,0.0,80.0,,,,,,
472,,confirmation,,html-keyboard-response,472,621066,0.0-1.0-86.0-0.0-1.0-0.0,0,0,80,,,,,,84.0,,,,,2.0,,,,,,,,,,,,,,,,,,160.213,0.787,,,,,,,,,,,,,,,
473,,isi,,html-keyboard-response,473,622574,0.0-1.0-86.0-0.0-2.0,0,0,80,,,,,,84.0,,,,,2.0,,,,,,,,,,,,,,,,,,161.0,1.5,,,,,,,,,,,,,,,
474,,feedback,,html-keyboard-response,474,623579,0.0-1.0-86.0-0.0-3.0-0.0,0,0,80,,,,,,84.0,,,,,2.0,,,,,,,,,,,,,,,,,,162.5,1.0,,,,,,,,,,,,,,,
475,,iti,,html-keyboard-response,475,627086,0.0-1.0-86.0-0.0-5.0,0,0,80,,,,,,84.0,,,,,2.0,,,,,,,,,,,,,,,,,,163.5,3.5,,,,,,,,,,,,,,,
476,,choice,,html-keyboard-response,476,627746,0.0-1.0-87.0-0.0-0.0,0,0,80,,656.0,,,50.0,85.0,90.0,1000.0,1000.0,0.0,2.0,0.0,40-80,,1.0,vase,motorcycle,80.0,40.0,vase1,motorcycle9,60.0,40.0,Avase114.jpg,speedbike.jpg,/static/Category_learning/Stimuli/Experimental_stims/vase/Avase114.jpg,/static/Category_learning/Stimuli/Experimental_stims/motorcycle/speedbike.jpg,0.0,167.0,0.656,1.0,vase,motorcycle,80.0,40.0,vase1,motorcycle9,60.0,40.0,,,,,,
477,,confirmation,,html-keyboard-response,477,628595,0.0-1.0-87.0-0.0-1.0-0.0,0,0,80,,,,,,85.0,,,,,2.0,,,,,,,,,,,,,,,,,,167.656,0.844,,,,,,,,,,,,,,,
478,,isi,,html-keyboard-response,478,629603,0.0-1.0-87.0-0.0-2.0,0,0,80,,,,,,85.0,,,,,2.0,,,,,,,,,,,,,,,,,,168.5,1.0,,,,,,,,,,,,,,,
479,,feedback,,html-keyboard-response,479,630611,0.0-1.0-87.0-0.0-3.0-0.0,0,0,80,,,,,,85.0,,,,,2.0,,,,,,,,,,,,,,,,,,169.5,1.0,,,,,,,,,,,,,,,
480,,iti,,html-keyboard-response,480,631617,0.0-1.0-87.0-0.0-5.0,0,0,80,,,,,,85.0,,,,,2.0,,,,,,,,,,,,,,,,,,170.5,1.0,,,,,,,,,,,,,,,
