,success,ttype,start_time,trial_type,trial_index,time_elapsed,internal_node_id,warning,missed_checkup,PID,view_history,rt,responses,repeat_instructions,key_press,index,trial_num,block,condition,iti,isi,high_group_on_left,left_group_value,right_group_value,left_item_value,right_item_value,left_img,right_img,left_img_path,right_img_path,left_chosen,chosen_group_value,unchosen_group_value,chosen_item_value,unchosen_item_value,chosen_img,unchosen_img,onset,duration,no_response,total_bonus_tally
0,True,full_screen,d06152022hr1810,fullscreen,0,2221,0.0-0.0,0,0,80,,,,,,,,,,,,,,,,,,,,,,,,,,,,,,,
1,,size_instructions,,instructions,1,5783,0.0-1.0-0.0-0.0,0,0,80,"[{""page_index"":0,""viewing_time"":2406},{""page_index"":1,""viewing_time"":171},{""page_index"":2,""viewing_time"":161},{""page_index"":3,""viewing_time"":158},{""page_index"":4,""viewing_time"":184},{""page_index"":5,""viewing_time"":481}]",3562.0,,,,,,,,,,,,,,,,,,,,,,,,,,,,,
2,,rl_comprehension_check,,survey-multi-choice,2,9626,0.0-1.0-0.0-1.0,0,0,80,,3839.0,"{""Q0"":""True"",""Q1"":""True"",""Q2"":""pointer finger for left and middle finger for right""}",0.0,,,,,,,,,,,,,,,,,,,,,,,,,,,
3,,,,html-keyboard-response,3,17239,0.0-1.0-1.0,0,0,80,,7611.0,,,83.0,,,,,,,,,,,,,,,,,,,,,,,,,,
4,,start_run,,html-keyboard-response,4,18850,0.0-1.0-2.0,0,0,80,,1610.0,,,84.0,,,,,,,,,,,,,,,,,,,,,,,,,,
5,,rl_choice,,html-keyboard-response,5,19640,0.0-1.0-3.0,0,0,80,,788.0,,,50.0,0.0,0.0,1.0,hard,1000.0,2000.0,0.0,40.0,60.0,20.0,60.0,C,D,/static/Simple_RL/Stimuli/Fractals_stims/C.jpg,/static/Simple_RL/Stimuli/Fractals_stims/D.jpg,1.0,40.0,60.0,20.0,60.0,C,D,0.0,0.788,0.0,
6,,rl_choice_confirmation,,html-keyboard-response,6,20353,0.0-1.0-4.0-0.0,0,0,80,,,,,,0.0,,1.0,,,,,,,,,,,,,,,,,,,,0.788,0.712,,
7,,isi,,html-keyboard-response,7,22359,0.0-1.0-6.0,0,0,80,,,,,,0.0,,1.0,,,,,,,,,,,,,,,,,,,,1.5,2.0,,
8,,feedback,,html-keyboard-response,8,23366,0.0-1.0-7.0-0.0,0,0,80,,,,,,0.0,,1.0,,,,,,,,,,,,,,,,,,,,3.5,1.0,,
9,,iti,,html-keyboard-response,9,24368,0.0-1.0-8.0,0,0,80,,,,,,0.0,,1.0,,,,,,,,,,,,,,,,,,,,4.5,1.0,,
10,,rl_choice,,html-keyboard-response,10,24712,0.0-1.0-10.0,0,0,80,,341.0,,,50.0,1.0,1.0,1.0,easy,1000.0,3000.0,1.0,80.0,20.0,100.0,40.0,B,A,/static/Simple_RL/Stimuli/Fractals_stims/B.jpg,/static/Simple_RL/Stimuli/Fractals_stims/A.jpg,1.0,80.0,20.0,100.0,40.0,B,A,5.5,0.341,0.0,
11,,rl_choice_confirmation,,html-keyboard-response,11,25872,0.0-1.0-11.0-0.0,0,0,80,,,,,,1.0,,1.0,,,,,,,,,,,,,,,,,,,,5.841,1.159,,
12,,isi,,html-keyboard-response,12,28875,0.0-1.0-13.0,0,0,80,,,,,,1.0,,1.0,,,,,,,,,,,,,,,,,,,,7.0,3.0,,
13,,feedback,,html-keyboard-response,13,29879,0.0-1.0-14.0-0.0,0,0,80,,,,,,1.0,,1.0,,,,,,,,,,,,,,,,,,,,10.0,1.0,,
14,,iti,,html-keyboard-response,14,30882,0.0-1.0-15.0,0,0,80,,,,,,1.0,,1.0,,,,,,,,,,,,,,,,,,,,11.0,1.0,,
15,,rl_choice,,html-keyboard-response,15,32384,0.0-1.0-17.0,0,0,80,,,,,,2.0,2.0,1.0,hard,3000.0,1000.0,0.0,40.0,60.0,20.0,80.0,C,D,/static/Simple_RL/Stimuli/Fractals_stims/C.jpg,/static/Simple_RL/Stimuli/Fractals_stims/D.jpg,,,,,,,,12.0,1.5,1.0,
16,,rl_choice_warning,,html-keyboard-response,16,33385,0.0-1.0-19.0-0.0,0,0,80,,,,,,2.0,,1.0,,,,,,,,,,,,,,,,,,,,13.5,1.0,,
17,,isi,,html-keyboard-response,17,34389,0.0-1.0-20.0,0,0,80,,,,,,2.0,,1.0,,,,,,,,,,,,,,,,,,,,14.5,1.0,,
18,,iti,,html-keyboard-response,18,37393,0.0-1.0-22.0,0,0,80,,,,,,2.0,,1.0,,,,,,,,,,,,,,,,,,,,15.5,3.0,,
19,,rl_choice,,html-keyboard-response,19,38898,0.0-1.0-24.0,0,0,80,,,,,,3.0,3.0,1.0,hard,1000.0,3500.0,0.0,40.0,60.0,60.0,60.0,C,D,/static/Simple_RL/Stimuli/Fractals_stims/C.jpg,/static/Simple_RL/Stimuli/Fractals_stims/D.jpg,,,,,,,,18.5,1.5,1.0,
20,,rl_choice_warning,,html-keyboard-response,20,39903,0.0-1.0-26.0-0.0,0,0,80,,,,,,3.0,,1.0,,,,,,,,,,,,,,,,,,,,20.0,1.0,,
21,,isi,,html-keyboard-response,21,43407,0.0-1.0-27.0,0,0,80,,,,,,3.0,,1.0,,,,,,,,,,,,,,,,,,,,21.0,3.5,,
22,,iti,,html-keyboard-response,22,44413,0.0-1.0-29.0,0,0,80,,,,,,3.0,,1.0,,,,,,,,,,,,,,,,,,,,24.5,1.0,,
23,,rl_choice,,html-keyboard-response,23,45920,0.0-1.0-31.0,0,0,80,,,,,,4.0,4.0,1.0,hard,1500.0,3000.0,0.0,40.0,60.0,20.0,60.0,C,D,/static/Simple_RL/Stimuli/Fractals_stims/C.jpg,/static/Simple_RL/Stimuli/Fractals_stims/D.jpg,,,,,,,,25.5,1.5,1.0,
24,,rl_choice_warning,,html-keyboard-response,24,46923,0.0-1.0-33.0-0.0,0,0,80,,,,,,4.0,,1.0,,,,,,,,,,,,,,,,,,,,27.0,1.0,,
25,,isi,,html-keyboard-response,25,49927,0.0-1.0-34.0,0,0,80,,,,,,4.0,,1.0,,,,,,,,,,,,,,,,,,,,28.0,3.0,,
26,,iti,,html-keyboard-response,26,51433,0.0-1.0-36.0,0,0,80,,,,,,4.0,,1.0,,,,,,,,,,,,,,,,,,,,31.0,1.5,,
27,,rl_choice,,html-keyboard-response,27,52939,0.0-1.0-38.0,0,0,80,,,,,,5.0,5.0,1.0,easy,2000.0,2000.0,0.0,20.0,80.0,20.0,100.0,A,B,/static/Simple_RL/Stimuli/Fractals_stims/A.jpg,/static/Simple_RL/Stimuli/Fractals_stims/B.jpg,,,,,,,,32.5,1.5,1.0,
28,,rl_choice_warning,,html-keyboard-response,28,53941,0.0-1.0-40.0-0.0,0,0,80,,,,,,5.0,,1.0,,,,,,,,,,,,,,,,,,,,34.0,1.0,,
29,,isi,,html-keyboard-response,29,55943,0.0-1.0-41.0,0,0,80,,,,,,5.0,,1.0,,,,,,,,,,,,,,,,,,,,35.0,2.0,,
30,,iti,,html-keyboard-response,30,57946,0.0-1.0-43.0,0,0,80,,,,,,5.0,,1.0,,,,,,,,,,,,,,,,,,,,37.0,2.0,,
31,,rl_choice,,html-keyboard-response,31,59451,0.0-1.0-45.0,0,0,80,,,,,,6.0,6.0,1.0,hard,1000.0,1000.0,0.0,40.0,60.0,40.0,80.0,C,D,/static/Simple_RL/Stimuli/Fractals_stims/C.jpg,/static/Simple_RL/Stimuli/Fractals_stims/D.jpg,,,,,,,,39.0,1.5,1.0,
32,,rl_choice_warning,,html-keyboard-response,32,60454,0.0-1.0-47.0-0.0,0,0,80,,,,,,6.0,,1.0,,,,,,,,,,,,,,,,,,,,40.5,1.0,,
33,,isi,,html-keyboard-response,33,61456,0.0-1.0-48.0,0,0,80,,,,,,6.0,,1.0,,,,,,,,,,,,,,,,,,,,41.5,1.0,,
34,,iti,,html-keyboard-response,34,62459,0.0-1.0-50.0,0,0,80,,,,,,6.0,,1.0,,,,,,,,,,,,,,,,,,,,42.5,1.0,,
35,,rl_choice,,html-keyboard-response,35,63966,0.0-1.0-52.0,0,0,80,,,,,,7.0,7.0,1.0,hard,1500.0,1000.0,0.0,40.0,60.0,60.0,80.0,C,D,/static/Simple_RL/Stimuli/Fractals_stims/C.jpg,/static/Simple_RL/Stimuli/Fractals_stims/D.jpg,,,,,,,,43.5,1.5,1.0,
36,,rl_choice_warning,,html-keyboard-response,36,64971,0.0-1.0-54.0-0.0,0,0,80,,,,,,7.0,,1.0,,,,,,,,,,,,,,,,,,,,45.0,1.0,,
37,,isi,,html-keyboard-response,37,65977,0.0-1.0-55.0,0,0,80,,,,,,7.0,,1.0,,,,,,,,,,,,,,,,,,,,46.0,1.0,,
38,,iti,,html-keyboard-response,38,67483,0.0-1.0-57.0,0,0,80,,,,,,7.0,,1.0,,,,,,,,,,,,,,,,,,,,47.0,1.5,,
39,,rl_choice,,html-keyboard-response,39,68987,0.0-1.0-59.0,0,0,80,,,,,,8.0,8.0,1.0,easy,1500.0,2000.0,0.0,20.0,80.0,0.0,100.0,A,B,/static/Simple_RL/Stimuli/Fractals_stims/A.jpg,/static/Simple_RL/Stimuli/Fractals_stims/B.jpg,,,,,,,,48.5,1.5,1.0,
40,,rl_choice_warning,,html-keyboard-response,40,69989,0.0-1.0-61.0-0.0,0,0,80,,,,,,8.0,,1.0,,,,,,,,,,,,,,,,,,,,50.0,1.0,,
41,,isi,,html-keyboard-response,41,71995,0.0-1.0-62.0,0,0,80,,,,,,8.0,,1.0,,,,,,,,,,,,,,,,,,,,51.0,2.0,,
42,,iti,,html-keyboard-response,42,73499,0.0-1.0-64.0,0,0,80,,,,,,8.0,,1.0,,,,,,,,,,,,,,,,,,,,53.0,1.5,,
43,,rl_choice,,html-keyboard-response,43,75003,0.0-1.0-66.0,0,0,80,,,,,,9.0,9.0,1.0,easy,2000.0,1000.0,1.0,80.0,20.0,60.0,0.0,B,A,/static/Simple_RL/Stimuli/Fractals_stims/B.jpg,/static/Simple_RL/Stimuli/Fractals_stims/A.jpg,,,,,,,,54.5,1.5,1.0,
44,,rl_choice_warning,,html-keyboard-response,44,76006,0.0-1.0-68.0-0.0,0,0,80,,,,,,9.0,,1.0,,,,,,,,,,,,,,,,,,,,56.0,1.0,,
45,,isi,,html-keyboard-response,45,77009,0.0-1.0-69.0,0,0,80,,,,,,9.0,,1.0,,,,,,,,,,,,,,,,,,,,57.0,1.0,,
46,,iti,,html-keyboard-response,46,79014,0.0-1.0-71.0,0,0,80,,,,,,9.0,,1.0,,,,,,,,,,,,,,,,,,,,58.0,2.0,,
47,,rl_choice,,html-keyboard-response,47,80518,0.0-1.0-73.0,0,0,80,,,,,,10.0,10.0,1.0,hard,1000.0,1000.0,1.0,60.0,40.0,40.0,40.0,D,C,/static/Simple_RL/Stimuli/Fractals_stims/D.jpg,/static/Simple_RL/Stimuli/Fractals_stims/C.jpg,,,,,,,,60.0,1.5,1.0,
48,,rl_choice_warning,,html-keyboard-response,48,81521,0.0-1.0-75.0-0.0,0,0,80,,,,,,10.0,,1.0,,,,,,,,,,,,,,,,,,,,61.5,1.0,,
49,,isi,,html-keyboard-response,49,82525,0.0-1.0-76.0,0,0,80,,,,,,10.0,,1.0,,,,,,,,,,,,,,,,,,,,62.5,1.0,,
50,,iti,,html-keyboard-response,50,83528,0.0-1.0-78.0,0,0,80,,,,,,10.0,,1.0,,,,,,,,,,,,,,,,,,,,63.5,1.0,,
51,,rl_choice,,html-keyboard-response,51,85034,0.0-1.0-80.0,0,0,80,,,,,,11.0,11.0,1.0,easy,1000.0,3000.0,0.0,20.0,80.0,20.0,60.0,A,B,/static/Simple_RL/Stimuli/Fractals_stims/A.jpg,/static/Simple_RL/Stimuli/Fractals_stims/B.jpg,,,,,,,,64.5,1.5,1.0,
52,,rl_choice_warning,,html-keyboard-response,52,86039,0.0-1.0-82.0-0.0,0,0,80,,,,,,11.0,,1.0,,,,,,,,,,,,,,,,,,,,66.0,1.0,,
53,,isi,,html-keyboard-response,53,89041,0.0-1.0-83.0,0,0,80,,,,,,11.0,,1.0,,,,,,,,,,,,,,,,,,,,67.0,3.0,,
54,,iti,,html-keyboard-response,54,90046,0.0-1.0-85.0,0,0,80,,,,,,11.0,,1.0,,,,,,,,,,,,,,,,,,,,70.0,1.0,,
55,,rl_choice,,html-keyboard-response,55,91549,0.0-1.0-87.0,0,0,80,,,,,,12.0,12.0,1.0,easy,3000.0,1500.0,0.0,20.0,80.0,20.0,80.0,A,B,/static/Simple_RL/Stimuli/Fractals_stims/A.jpg,/static/Simple_RL/Stimuli/Fractals_stims/B.jpg,,,,,,,,71.0,1.5,1.0,
56,,rl_choice_warning,,html-keyboard-response,56,92552,0.0-1.0-89.0-0.0,0,0,80,,,,,,12.0,,1.0,,,,,,,,,,,,,,,,,,,,72.5,1.0,,
57,,isi,,html-keyboard-response,57,94057,0.0-1.0-90.0,0,0,80,,,,,,12.0,,1.0,,,,,,,,,,,,,,,,,,,,73.5,1.5,,
58,,iti,,html-keyboard-response,58,97063,0.0-1.0-92.0,0,0,80,,,,,,12.0,,1.0,,,,,,,,,,,,,,,,,,,,75.0,3.0,,
59,,rl_choice,,html-keyboard-response,59,98567,0.0-1.0-94.0,0,0,80,,,,,,13.0,13.0,1.0,hard,1000.0,2000.0,0.0,40.0,60.0,40.0,80.0,C,D,/static/Simple_RL/Stimuli/Fractals_stims/C.jpg,/static/Simple_RL/Stimuli/Fractals_stims/D.jpg,,,,,,,,78.0,1.5,1.0,
60,,rl_choice_warning,,html-keyboard-response,60,99571,0.0-1.0-96.0-0.0,0,0,80,,,,,,13.0,,1.0,,,,,,,,,,,,,,,,,,,,79.5,1.0,,
61,,isi,,html-keyboard-response,61,101575,0.0-1.0-97.0,0,0,80,,,,,,13.0,,1.0,,,,,,,,,,,,,,,,,,,,80.5,2.0,,
62,,iti,,html-keyboard-response,62,102578,0.0-1.0-99.0,0,0,80,,,,,,13.0,,1.0,,,,,,,,,,,,,,,,,,,,82.5,1.0,,
63,,rl_choice,,html-keyboard-response,63,104082,0.0-1.0-101.0,0,0,80,,,,,,14.0,14.0,1.0,easy,1500.0,1500.0,0.0,20.0,80.0,20.0,80.0,A,B,/static/Simple_RL/Stimuli/Fractals_stims/A.jpg,/static/Simple_RL/Stimuli/Fractals_stims/B.jpg,,,,,,,,83.5,1.5,1.0,
64,,rl_choice_warning,,html-keyboard-response,64,105087,0.0-1.0-103.0-0.0,0,0,80,,,,,,14.0,,1.0,,,,,,,,,,,,,,,,,,,,85.0,1.0,,
65,,isi,,html-keyboard-response,65,106589,0.0-1.0-104.0,0,0,80,,,,,,14.0,,1.0,,,,,,,,,,,,,,,,,,,,86.0,1.5,,
66,,iti,,html-keyboard-response,66,108093,0.0-1.0-106.0,0,0,80,,,,,,14.0,,1.0,,,,,,,,,,,,,,,,,,,,87.5,1.5,,
67,,rl_choice,,html-keyboard-response,67,109596,0.0-1.0-108.0,0,0,80,,,,,,15.0,15.0,1.0,hard,1500.0,2000.0,1.0,60.0,40.0,40.0,60.0,D,C,/static/Simple_RL/Stimuli/Fractals_stims/D.jpg,/static/Simple_RL/Stimuli/Fractals_stims/C.jpg,,,,,,,,89.0,1.5,1.0,
68,,rl_choice_warning,,html-keyboard-response,68,110599,0.0-1.0-110.0-0.0,0,0,80,,,,,,15.0,,1.0,,,,,,,,,,,,,,,,,,,,90.5,1.0,,
69,,isi,,html-keyboard-response,69,112605,0.0-1.0-111.0,0,0,80,,,,,,15.0,,1.0,,,,,,,,,,,,,,,,,,,,91.5,2.0,,
70,,iti,,html-keyboard-response,70,114110,0.0-1.0-113.0,0,0,80,,,,,,15.0,,1.0,,,,,,,,,,,,,,,,,,,,93.5,1.5,,
71,,rl_choice,,html-keyboard-response,71,115613,0.0-1.0-115.0,0,0,80,,,,,,16.0,16.0,1.0,hard,1000.0,1000.0,1.0,60.0,40.0,60.0,60.0,D,C,/static/Simple_RL/Stimuli/Fractals_stims/D.jpg,/static/Simple_RL/Stimuli/Fractals_stims/C.jpg,,,,,,,,95.0,1.5,1.0,
72,,rl_choice_warning,,html-keyboard-response,72,116619,0.0-1.0-117.0-0.0,0,0,80,,,,,,16.0,,1.0,,,,,,,,,,,,,,,,,,,,96.5,1.0,,
73,,isi,,html-keyboard-response,73,117622,0.0-1.0-118.0,0,0,80,,,,,,16.0,,1.0,,,,,,,,,,,,,,,,,,,,97.5,1.0,,
74,,iti,,html-keyboard-response,74,118626,0.0-1.0-120.0,0,0,80,,,,,,16.0,,1.0,,,,,,,,,,,,,,,,,,,,98.5,1.0,,
75,,rl_choice,,html-keyboard-response,75,120130,0.0-1.0-122.0,0,0,80,,,,,,17.0,17.0,1.0,easy,3000.0,1500.0,1.0,80.0,20.0,60.0,20.0,B,A,/static/Simple_RL/Stimuli/Fractals_stims/B.jpg,/static/Simple_RL/Stimuli/Fractals_stims/A.jpg,,,,,,,,99.5,1.5,1.0,
76,,rl_choice_warning,,html-keyboard-response,76,121133,0.0-1.0-124.0-0.0,0,0,80,,,,,,17.0,,1.0,,,,,,,,,,,,,,,,,,,,101.0,1.0,,
77,,isi,,html-keyboard-response,77,122638,0.0-1.0-125.0,0,0,80,,,,,,17.0,,1.0,,,,,,,,,,,,,,,,,,,,102.0,1.5,,
78,,iti,,html-keyboard-response,78,125640,0.0-1.0-127.0,0,0,80,,,,,,17.0,,1.0,,,,,,,,,,,,,,,,,,,,103.5,3.0,,
79,,rl_choice,,html-keyboard-response,79,127144,0.0-1.0-129.0,0,0,80,,,,,,18.0,18.0,1.0,hard,3500.0,1500.0,1.0,60.0,40.0,60.0,60.0,D,C,/static/Simple_RL/Stimuli/Fractals_stims/D.jpg,/static/Simple_RL/Stimuli/Fractals_stims/C.jpg,,,,,,,,106.5,1.5,1.0,
80,,rl_choice_warning,,html-keyboard-response,80,128151,0.0-1.0-131.0-0.0,0,0,80,,,,,,18.0,,1.0,,,,,,,,,,,,,,,,,,,,108.0,1.0,,
81,,isi,,html-keyboard-response,81,129653,0.0-1.0-132.0,0,0,80,,,,,,18.0,,1.0,,,,,,,,,,,,,,,,,,,,109.0,1.5,,
82,,iti,,html-keyboard-response,82,133158,0.0-1.0-134.0,0,0,80,,,,,,18.0,,1.0,,,,,,,,,,,,,,,,,,,,110.5,3.5,,
83,,rl_choice,,html-keyboard-response,83,134664,0.0-1.0-136.0,0,0,80,,,,,,19.0,19.0,1.0,hard,2000.0,1500.0,1.0,60.0,40.0,60.0,20.0,D,C,/static/Simple_RL/Stimuli/Fractals_stims/D.jpg,/static/Simple_RL/Stimuli/Fractals_stims/C.jpg,,,,,,,,114.0,1.5,1.0,
84,,rl_choice_warning,,html-keyboard-response,84,135668,0.0-1.0-138.0-0.0,0,0,80,,,,,,19.0,,1.0,,,,,,,,,,,,,,,,,,,,115.5,1.0,,
85,,isi,,html-keyboard-response,85,137171,0.0-1.0-139.0,0,0,80,,,,,,19.0,,1.0,,,,,,,,,,,,,,,,,,,,116.5,1.5,,
86,,iti,,html-keyboard-response,86,139176,0.0-1.0-141.0,0,0,80,,,,,,19.0,,1.0,,,,,,,,,,,,,,,,,,,,118.0,2.0,,
87,,rl_choice,,html-keyboard-response,87,140680,0.0-1.0-143.0,0,0,80,,,,,,20.0,20.0,1.0,easy,2000.0,1000.0,1.0,80.0,20.0,80.0,20.0,B,A,/static/Simple_RL/Stimuli/Fractals_stims/B.jpg,/static/Simple_RL/Stimuli/Fractals_stims/A.jpg,,,,,,,,120.0,1.5,1.0,
88,,rl_choice_warning,,html-keyboard-response,88,141686,0.0-1.0-145.0-0.0,0,0,80,,,,,,20.0,,1.0,,,,,,,,,,,,,,,,,,,,121.5,1.0,,
89,,isi,,html-keyboard-response,89,142690,0.0-1.0-146.0,0,0,80,,,,,,20.0,,1.0,,,,,,,,,,,,,,,,,,,,122.5,1.0,,
90,,iti,,html-keyboard-response,90,144696,0.0-1.0-148.0,0,0,80,,,,,,20.0,,1.0,,,,,,,,,,,,,,,,,,,,123.5,2.0,,
91,,rl_choice,,html-keyboard-response,91,146200,0.0-1.0-150.0,0,0,80,,,,,,21.0,21.0,1.0,easy,1500.0,2000.0,1.0,80.0,20.0,80.0,20.0,B,A,/static/Simple_RL/Stimuli/Fractals_stims/B.jpg,/static/Simple_RL/Stimuli/Fractals_stims/A.jpg,,,,,,,,125.5,1.5,1.0,
92,,rl_choice_warning,,html-keyboard-response,92,147206,0.0-1.0-152.0-0.0,0,0,80,,,,,,21.0,,1.0,,,,,,,,,,,,,,,,,,,,127.0,1.0,,
93,,isi,,html-keyboard-response,93,149211,0.0-1.0-153.0,0,0,80,,,,,,21.0,,1.0,,,,,,,,,,,,,,,,,,,,128.0,2.0,,
94,,iti,,html-keyboard-response,94,150712,0.0-1.0-155.0,0,0,80,,,,,,21.0,,1.0,,,,,,,,,,,,,,,,,,,,130.0,1.5,,
95,,rl_choice,,html-keyboard-response,95,152217,0.0-1.0-157.0,0,0,80,,,,,,22.0,22.0,1.0,easy,1000.0,1000.0,0.0,20.0,80.0,0.0,100.0,A,B,/static/Simple_RL/Stimuli/Fractals_stims/A.jpg,/static/Simple_RL/Stimuli/Fractals_stims/B.jpg,,,,,,,,131.5,1.5,1.0,
96,,rl_choice_warning,,html-keyboard-response,96,153222,0.0-1.0-159.0-0.0,0,0,80,,,,,,22.0,,1.0,,,,,,,,,,,,,,,,,,,,133.0,1.0,,
97,,isi,,html-keyboard-response,97,154227,0.0-1.0-160.0,0,0,80,,,,,,22.0,,1.0,,,,,,,,,,,,,,,,,,,,134.0,1.0,,
98,,iti,,html-keyboard-response,98,155230,0.0-1.0-162.0,0,0,80,,,,,,22.0,,1.0,,,,,,,,,,,,,,,,,,,,135.0,1.0,,
99,,rl_choice,,html-keyboard-response,99,156733,0.0-1.0-164.0,0,0,80,,,,,,23.0,23.0,1.0,hard,2000.0,1000.0,1.0,60.0,40.0,80.0,60.0,D,C,/static/Simple_RL/Stimuli/Fractals_stims/D.jpg,/static/Simple_RL/Stimuli/Fractals_stims/C.jpg,,,,,,,,136.0,1.5,1.0,
100,,rl_choice_warning,,html-keyboard-response,100,157736,0.0-1.0-166.0-0.0,0,0,80,,,,,,23.0,,1.0,,,,,,,,,,,,,,,,,,,,137.5,1.0,,
101,,isi,,html-keyboard-response,101,158740,0.0-1.0-167.0,0,0,80,,,,,,23.0,,1.0,,,,,,,,,,,,,,,,,,,,138.5,1.0,,
102,,iti,,html-keyboard-response,102,160745,0.0-1.0-169.0,0,0,80,,,,,,23.0,,1.0,,,,,,,,,,,,,,,,,,,,139.5,2.0,,
103,,rl_choice,,html-keyboard-response,103,162249,0.0-1.0-171.0,0,0,80,,,,,,24.0,24.0,1.0,hard,1000.0,3000.0,1.0,60.0,40.0,40.0,60.0,D,C,/static/Simple_RL/Stimuli/Fractals_stims/D.jpg,/static/Simple_RL/Stimuli/Fractals_stims/C.jpg,,,,,,,,141.5,1.5,1.0,
104,,rl_choice_warning,,html-keyboard-response,104,163251,0.0-1.0-173.0-0.0,0,0,80,,,,,,24.0,,1.0,,,,,,,,,,,,,,,,,,,,143.0,1.0,,
105,,isi,,html-keyboard-response,105,166257,0.0-1.0-174.0,0,0,80,,,,,,24.0,,1.0,,,,,,,,,,,,,,,,,,,,144.0,3.0,,
106,,iti,,html-keyboard-response,106,167262,0.0-1.0-176.0,0,0,80,,,,,,24.0,,1.0,,,,,,,,,,,,,,,,,,,,147.0,1.0,,
107,,rl_choice,,html-keyboard-response,107,168768,0.0-1.0-178.0,0,0,80,,,,,,25.0,25.0,1.0,hard,2000.0,1000.0,1.0,60.0,40.0,40.0,40.0,D,C,/static/Simple_RL/Stimuli/Fractals_stims/D.jpg,/static/Simple_RL/Stimuli/Fractals_stims/C.jpg,,,,,,,,148.0,1.5,1.0,
108,,rl_choice_warning,,html-keyboard-response,108,169771,0.0-1.0-180.0-0.0,0,0,80,,,,,,25.0,,1.0,,,,,,,,,,,,,,,,,,,,149.5,1.0,,
109,,isi,,html-keyboard-response,109,170777,0.0-1.0-181.0,0,0,80,,,,,,25.0,,1.0,,,,,,,,,,,,,,,,,,,,150.5,1.0,,
110,,iti,,html-keyboard-response,110,172782,0.0-1.0-183.0,0,0,80,,,,,,25.0,,1.0,,,,,,,,,,,,,,,,,,,,151.5,2.0,,
111,,rl_choice,,html-keyboard-response,111,174287,0.0-1.0-185.0,0,0,80,,,,,,26.0,26.0,1.0,easy,1000.0,1000.0,1.0,80.0,20.0,100.0,20.0,B,A,/static/Simple_RL/Stimuli/Fractals_stims/B.jpg,/static/Simple_RL/Stimuli/Fractals_stims/A.jpg,,,,,,,,153.5,1.5,1.0,
112,,rl_choice_warning,,html-keyboard-response,112,175293,0.0-1.0-187.0-0.0,0,0,80,,,,,,26.0,,1.0,,,,,,,,,,,,,,,,,,,,155.0,1.0,,
113,,isi,,html-keyboard-response,113,176297,0.0-1.0-188.0,0,0,80,,,,,,26.0,,1.0,,,,,,,,,,,,,,,,,,,,156.0,1.0,,
114,,iti,,html-keyboard-response,114,177300,0.0-1.0-190.0,0,0,80,,,,,,26.0,,1.0,,,,,,,,,,,,,,,,,,,,157.0,1.0,,
115,,rl_choice,,html-keyboard-response,115,178804,0.0-1.0-192.0,0,0,80,,,,,,27.0,27.0,1.0,hard,1000.0,1500.0,0.0,40.0,60.0,20.0,80.0,C,D,/static/Simple_RL/Stimuli/Fractals_stims/C.jpg,/static/Simple_RL/Stimuli/Fractals_stims/D.jpg,,,,,,,,158.0,1.5,1.0,
116,,rl_choice_warning,,html-keyboard-response,116,179808,0.0-1.0-194.0-0.0,0,0,80,,,,,,27.0,,1.0,,,,,,,,,,,,,,,,,,,,159.5,1.0,,
117,,isi,,html-keyboard-response,117,181311,0.0-1.0-195.0,0,0,80,,,,,,27.0,,1.0,,,,,,,,,,,,,,,,,,,,160.5,1.5,,
118,,iti,,html-keyboard-response,118,182317,0.0-1.0-197.0,0,0,80,,,,,,27.0,,1.0,,,,,,,,,,,,,,,,,,,,162.0,1.0,,
119,,rl_choice,,html-keyboard-response,119,183824,0.0-1.0-199.0,0,0,80,,,,,,28.0,28.0,1.0,hard,1500.0,1500.0,0.0,40.0,60.0,40.0,40.0,C,D,/static/Simple_RL/Stimuli/Fractals_stims/C.jpg,/static/Simple_RL/Stimuli/Fractals_stims/D.jpg,,,,,,,,163.0,1.5,1.0,
120,,rl_choice_warning,,html-keyboard-response,120,184825,0.0-1.0-201.0-0.0,0,0,80,,,,,,28.0,,1.0,,,,,,,,,,,,,,,,,,,,164.5,1.0,,
121,,isi,,html-keyboard-response,121,186331,0.0-1.0-202.0,0,0,80,,,,,,28.0,,1.0,,,,,,,,,,,,,,,,,,,,165.5,1.5,,
122,,iti,,html-keyboard-response,122,187834,0.0-1.0-204.0,0,0,80,,,,,,28.0,,1.0,,,,,,,,,,,,,,,,,,,,167.0,1.5,,
123,,rl_choice,,html-keyboard-response,123,189339,0.0-1.0-206.0,0,0,80,,,,,,29.0,29.0,1.0,easy,1000.0,1000.0,0.0,20.0,80.0,20.0,80.0,A,B,/static/Simple_RL/Stimuli/Fractals_stims/A.jpg,/static/Simple_RL/Stimuli/Fractals_stims/B.jpg,,,,,,,,168.5,1.5,1.0,
124,,rl_choice_warning,,html-keyboard-response,124,190346,0.0-1.0-208.0-0.0,0,0,80,,,,,,29.0,,1.0,,,,,,,,,,,,,,,,,,,,170.0,1.0,,
125,,isi,,html-keyboard-response,125,191354,0.0-1.0-209.0,0,0,80,,,,,,29.0,,1.0,,,,,,,,,,,,,,,,,,,,171.0,1.0,,
126,,iti,,html-keyboard-response,126,192356,0.0-1.0-211.0,0,0,80,,,,,,29.0,,1.0,,,,,,,,,,,,,,,,,,,,172.0,1.0,,
127,,rl_choice,,html-keyboard-response,127,193858,0.0-1.0-213.0,0,0,80,,,,,,30.0,30.0,1.0,hard,1500.0,2000.0,1.0,60.0,40.0,80.0,60.0,D,C,/static/Simple_RL/Stimuli/Fractals_stims/D.jpg,/static/Simple_RL/Stimuli/Fractals_stims/C.jpg,,,,,,,,173.0,1.5,1.0,
128,,rl_choice_warning,,html-keyboard-response,128,194863,0.0-1.0-215.0-0.0,0,0,80,,,,,,30.0,,1.0,,,,,,,,,,,,,,,,,,,,174.5,1.0,,
129,,isi,,html-keyboard-response,129,196868,0.0-1.0-216.0,0,0,80,,,,,,30.0,,1.0,,,,,,,,,,,,,,,,,,,,175.5,2.0,,
130,,iti,,html-keyboard-response,130,198374,0.0-1.0-218.0,0,0,80,,,,,,30.0,,1.0,,,,,,,,,,,,,,,,,,,,177.5,1.5,,
131,,rl_choice,,html-keyboard-response,131,199877,0.0-1.0-220.0,0,0,80,,,,,,31.0,31.0,1.0,easy,1000.0,1500.0,1.0,80.0,20.0,80.0,0.0,B,A,/static/Simple_RL/Stimuli/Fractals_stims/B.jpg,/static/Simple_RL/Stimuli/Fractals_stims/A.jpg,,,,,,,,179.0,1.5,1.0,
132,,rl_choice_warning,,html-keyboard-response,132,200880,0.0-1.0-222.0-0.0,0,0,80,,,,,,31.0,,1.0,,,,,,,,,,,,,,,,,,,,180.5,1.0,,
133,,isi,,html-keyboard-response,133,202384,0.0-1.0-223.0,0,0,80,,,,,,31.0,,1.0,,,,,,,,,,,,,,,,,,,,181.5,1.5,,
134,,iti,,html-keyboard-response,134,203386,0.0-1.0-225.0,0,0,80,,,,,,31.0,,1.0,,,,,,,,,,,,,,,,,,,,183.0,1.0,,
135,,rl_choice,,html-keyboard-response,135,204890,0.0-1.0-227.0,0,0,80,,,,,,32.0,32.0,1.0,easy,1000.0,3500.0,1.0,80.0,20.0,60.0,20.0,B,A,/static/Simple_RL/Stimuli/Fractals_stims/B.jpg,/static/Simple_RL/Stimuli/Fractals_stims/A.jpg,,,,,,,,184.0,1.5,1.0,
136,,rl_choice_warning,,html-keyboard-response,136,205893,0.0-1.0-229.0-0.0,0,0,80,,,,,,32.0,,1.0,,,,,,,,,,,,,,,,,,,,185.5,1.0,,
137,,isi,,html-keyboard-response,137,209396,0.0-1.0-230.0,0,0,80,,,,,,32.0,,1.0,,,,,,,,,,,,,,,,,,,,186.5,3.5,,
138,,iti,,html-keyboard-response,138,210401,0.0-1.0-232.0,0,0,80,,,,,,32.0,,1.0,,,,,,,,,,,,,,,,,,,,190.0,1.0,,
139,,rl_choice,,html-keyboard-response,139,211904,0.0-1.0-234.0,0,0,80,,,,,,33.0,33.0,1.0,hard,2000.0,1500.0,1.0,60.0,40.0,40.0,20.0,D,C,/static/Simple_RL/Stimuli/Fractals_stims/D.jpg,/static/Simple_RL/Stimuli/Fractals_stims/C.jpg,,,,,,,,191.0,1.5,1.0,
140,,rl_choice_warning,,html-keyboard-response,140,212908,0.0-1.0-236.0-0.0,0,0,80,,,,,,33.0,,1.0,,,,,,,,,,,,,,,,,,,,192.5,1.0,,
141,,isi,,html-keyboard-response,141,214410,0.0-1.0-237.0,0,0,80,,,,,,33.0,,1.0,,,,,,,,,,,,,,,,,,,,193.5,1.5,,
142,,iti,,html-keyboard-response,142,216416,0.0-1.0-239.0,0,0,80,,,,,,33.0,,1.0,,,,,,,,,,,,,,,,,,,,195.0,2.0,,
143,,rl_choice,,html-keyboard-response,143,217919,0.0-1.0-241.0,0,0,80,,,,,,34.0,34.0,1.0,hard,3000.0,1000.0,0.0,40.0,60.0,20.0,60.0,C,D,/static/Simple_RL/Stimuli/Fractals_stims/C.jpg,/static/Simple_RL/Stimuli/Fractals_stims/D.jpg,,,,,,,,197.0,1.5,1.0,
144,,rl_choice_warning,,html-keyboard-response,144,218922,0.0-1.0-243.0-0.0,0,0,80,,,,,,34.0,,1.0,,,,,,,,,,,,,,,,,,,,198.5,1.0,,
145,,isi,,html-keyboard-response,145,219927,0.0-1.0-244.0,0,0,80,,,,,,34.0,,1.0,,,,,,,,,,,,,,,,,,,,199.5,1.0,,
146,,iti,,html-keyboard-response,146,222932,0.0-1.0-246.0,0,0,80,,,,,,34.0,,1.0,,,,,,,,,,,,,,,,,,,,200.5,3.0,,
147,,rl_choice,,html-keyboard-response,147,224437,0.0-1.0-248.0,0,0,80,,,,,,35.0,35.0,1.0,easy,1500.0,1000.0,1.0,80.0,20.0,80.0,20.0,B,A,/static/Simple_RL/Stimuli/Fractals_stims/B.jpg,/static/Simple_RL/Stimuli/Fractals_stims/A.jpg,,,,,,,,203.5,1.5,1.0,
148,,rl_choice_warning,,html-keyboard-response,148,225440,0.0-1.0-250.0-0.0,0,0,80,,,,,,35.0,,1.0,,,,,,,,,,,,,,,,,,,,205.0,1.0,,
149,,isi,,html-keyboard-response,149,226442,0.0-1.0-251.0,0,0,80,,,,,,35.0,,1.0,,,,,,,,,,,,,,,,,,,,206.0,1.0,,
150,,iti,,html-keyboard-response,150,227947,0.0-1.0-253.0,0,0,80,,,,,,35.0,,1.0,,,,,,,,,,,,,,,,,,,,207.0,1.5,,
151,,rl_choice,,html-keyboard-response,151,229451,0.0-1.0-255.0,0,0,80,,,,,,36.0,36.0,1.0,easy,1500.0,2000.0,1.0,80.0,20.0,80.0,40.0,B,A,/static/Simple_RL/Stimuli/Fractals_stims/B.jpg,/static/Simple_RL/Stimuli/Fractals_stims/A.jpg,,,,,,,,208.5,1.5,1.0,
152,,rl_choice_warning,,html-keyboard-response,152,230454,0.0-1.0-257.0-0.0,0,0,80,,,,,,36.0,,1.0,,,,,,,,,,,,,,,,,,,,210.0,1.0,,
153,,isi,,html-keyboard-response,153,232458,0.0-1.0-258.0,0,0,80,,,,,,36.0,,1.0,,,,,,,,,,,,,,,,,,,,211.0,2.0,,
154,,iti,,html-keyboard-response,154,233964,0.0-1.0-260.0,0,0,80,,,,,,36.0,,1.0,,,,,,,,,,,,,,,,,,,,213.0,1.5,,
155,,rl_choice,,html-keyboard-response,155,235468,0.0-1.0-262.0,0,0,80,,,,,,37.0,37.0,1.0,easy,2000.0,1000.0,1.0,80.0,20.0,60.0,40.0,B,A,/static/Simple_RL/Stimuli/Fractals_stims/B.jpg,/static/Simple_RL/Stimuli/Fractals_stims/A.jpg,,,,,,,,214.5,1.5,1.0,
156,,rl_choice_warning,,html-keyboard-response,156,236472,0.0-1.0-264.0-0.0,0,0,80,,,,,,37.0,,1.0,,,,,,,,,,,,,,,,,,,,216.0,1.0,,
157,,isi,,html-keyboard-response,157,237478,0.0-1.0-265.0,0,0,80,,,,,,37.0,,1.0,,,,,,,,,,,,,,,,,,,,217.0,1.0,,
158,,iti,,html-keyboard-response,158,239483,0.0-1.0-267.0,0,0,80,,,,,,37.0,,1.0,,,,,,,,,,,,,,,,,,,,218.0,2.0,,
159,,rl_choice,,html-keyboard-response,159,240987,0.0-1.0-269.0,0,0,80,,,,,,38.0,38.0,1.0,easy,3500.0,1500.0,0.0,20.0,80.0,40.0,60.0,A,B,/static/Simple_RL/Stimuli/Fractals_stims/A.jpg,/static/Simple_RL/Stimuli/Fractals_stims/B.jpg,,,,,,,,220.0,1.5,1.0,
160,,rl_choice_warning,,html-keyboard-response,160,241990,0.0-1.0-271.0-0.0,0,0,80,,,,,,38.0,,1.0,,,,,,,,,,,,,,,,,,,,221.5,1.0,,
161,,isi,,html-keyboard-response,161,243494,0.0-1.0-272.0,0,0,80,,,,,,38.0,,1.0,,,,,,,,,,,,,,,,,,,,222.5,1.5,,
162,,iti,,html-keyboard-response,162,246998,0.0-1.0-274.0,0,0,80,,,,,,38.0,,1.0,,,,,,,,,,,,,,,,,,,,224.0,3.5,,
163,,rl_choice,,html-keyboard-response,163,248502,0.0-1.0-276.0,0,0,80,,,,,,39.0,39.0,1.0,easy,1000.0,1000.0,1.0,80.0,20.0,60.0,20.0,B,A,/static/Simple_RL/Stimuli/Fractals_stims/B.jpg,/static/Simple_RL/Stimuli/Fractals_stims/A.jpg,,,,,,,,227.5,1.5,1.0,
164,,rl_choice_warning,,html-keyboard-response,164,249505,0.0-1.0-278.0-0.0,0,0,80,,,,,,39.0,,1.0,,,,,,,,,,,,,,,,,,,,229.0,1.0,,
165,,isi,,html-keyboard-response,165,250510,0.0-1.0-279.0,0,0,80,,,,,,39.0,,1.0,,,,,,,,,,,,,,,,,,,,230.0,1.0,,
166,,iti,,html-keyboard-response,166,251515,0.0-1.0-281.0,0,0,80,,,,,,39.0,,1.0,,,,,,,,,,,,,,,,,,,,231.0,1.0,,
167,,block_over,,html-keyboard-response,167,905678,0.0-1.0-282.0-0.0,0,0,80,,654161.0,,,83.0,39.0,,,,,,,,,,,,,,,,,,,,,,,,,
168,,start_run,,html-keyboard-response,168,906182,0.0-1.0-282.0-1.0,0,0,80,,502.0,,,84.0,,,,,,,,,,,,,,,,,,,,,,,,,,
169,,rl_choice,,html-keyboard-response,169,906357,0.0-1.0-283.0,0,0,80,,172.0,,,50.0,40.0,40.0,2.0,hard,1000.0,2000.0,0.0,40.0,60.0,40.0,40.0,C,D,/static/Simple_RL/Stimuli/Fractals_stims/C.jpg,/static/Simple_RL/Stimuli/Fractals_stims/D.jpg,1.0,40.0,60.0,40.0,40.0,C,D,0.0,0.172,0.0,
170,,rl_choice_confirmation,,html-keyboard-response,170,907687,0.0-1.0-284.0-0.0,0,0,80,,,,,,40.0,,2.0,,,,,,,,,,,,,,,,,,,,0.172,1.328,,
171,,isi,,html-keyboard-response,171,909688,0.0-1.0-286.0,0,0,80,,,,,,40.0,,2.0,,,,,,,,,,,,,,,,,,,,1.5,2.0,,
172,,feedback,,html-keyboard-response,172,910690,0.0-1.0-287.0-0.0,0,0,80,,,,,,40.0,,2.0,,,,,,,,,,,,,,,,,,,,3.5,1.0,,
173,,iti,,html-keyboard-response,173,911692,0.0-1.0-288.0,0,0,80,,,,,,40.0,,2.0,,,,,,,,,,,,,,,,,,,,4.5,1.0,,
174,,rl_choice,,html-keyboard-response,174,912102,0.0-1.0-290.0,0,0,80,,408.0,,,50.0,41.0,41.0,2.0,hard,1000.0,3000.0,1.0,60.0,40.0,40.0,60.0,D,C,/static/Simple_RL/Stimuli/Fractals_stims/D.jpg,/static/Simple_RL/Stimuli/Fractals_stims/C.jpg,1.0,60.0,40.0,40.0,60.0,D,C,5.5,0.408,0.0,
175,,rl_choice_confirmation,,html-keyboard-response,175,913197,0.0-1.0-291.0-0.0,0,0,80,,,,,,41.0,,2.0,,,,,,,,,,,,,,,,,,,,5.908,1.092,,
176,,isi,,html-keyboard-response,176,916200,0.0-1.0-293.0,0,0,80,,,,,,41.0,,2.0,,,,,,,,,,,,,,,,,,,,7.0,3.0,,
177,,feedback,,html-keyboard-response,177,917204,0.0-1.0-294.0-0.0,0,0,80,,,,,,41.0,,2.0,,,,,,,,,,,,,,,,,,,,10.0,1.0,,
178,,iti,,html-keyboard-response,178,918206,0.0-1.0-295.0,0,0,80,,,,,,41.0,,2.0,,,,,,,,,,,,,,,,,,,,11.0,1.0,,
179,,rl_choice,,html-keyboard-response,179,918362,0.0-1.0-297.0,0,0,80,,155.0,,,50.0,42.0,42.0,2.0,hard,1000.0,1000.0,0.0,40.0,60.0,40.0,40.0,C,D,/static/Simple_RL/Stimuli/Fractals_stims/C.jpg,/static/Simple_RL/Stimuli/Fractals_stims/D.jpg,1.0,40.0,60.0,40.0,40.0,C,D,12.0,0.155,0.0,
180,,rl_choice_confirmation,,html-keyboard-response,180,919709,0.0-1.0-298.0-0.0,0,0,80,,,,,,42.0,,2.0,,,,,,,,,,,,,,,,,,,,12.155,1.345,,
181,,isi,,html-keyboard-response,181,920713,0.0-1.0-300.0,0,0,80,,,,,,42.0,,2.0,,,,,,,,,,,,,,,,,,,,13.5,1.0,,
182,,feedback,,html-keyboard-response,182,921717,0.0-1.0-301.0-0.0,0,0,80,,,,,,42.0,,2.0,,,,,,,,,,,,,,,,,,,,14.5,1.0,,
183,,iti,,html-keyboard-response,183,922722,0.0-1.0-302.0,0,0,80,,,,,,42.0,,2.0,,,,,,,,,,,,,,,,,,,,15.5,1.0,,
184,,rl_choice,,html-keyboard-response,184,922834,0.0-1.0-304.0,0,0,80,,112.0,,,50.0,43.0,43.0,2.0,easy,1500.0,2000.0,0.0,20.0,80.0,0.0,60.0,A,B,/static/Simple_RL/Stimuli/Fractals_stims/A.jpg,/static/Simple_RL/Stimuli/Fractals_stims/B.jpg,1.0,20.0,80.0,0.0,60.0,A,B,16.5,0.112,0.0,
185,,rl_choice_confirmation,,html-keyboard-response,185,924224,0.0-1.0-305.0-0.0,0,0,80,,,,,,43.0,,2.0,,,,,,,,,,,,,,,,,,,,16.612,1.388,,
186,,isi,,html-keyboard-response,186,926226,0.0-1.0-307.0,0,0,80,,,,,,43.0,,2.0,,,,,,,,,,,,,,,,,,,,18.0,2.0,,
187,,feedback,,html-keyboard-response,187,927232,0.0-1.0-308.0-0.0,0,0,80,,,,,,43.0,,2.0,,,,,,,,,,,,,,,,,,,,20.0,1.0,,
188,,iti,,html-keyboard-response,188,928734,0.0-1.0-309.0,0,0,80,,,,,,43.0,,2.0,,,,,,,,,,,,,,,,,,,,21.0,1.5,,
189,,rl_choice,,html-keyboard-response,189,930240,0.0-1.0-311.0,0,0,80,,,,,,44.0,44.0,2.0,hard,1000.0,1500.0,0.0,40.0,60.0,60.0,60.0,C,D,/static/Simple_RL/Stimuli/Fractals_stims/C.jpg,/static/Simple_RL/Stimuli/Fractals_stims/D.jpg,,,,,,,,22.5,1.5,1.0,
190,,rl_choice_warning,,html-keyboard-response,190,931245,0.0-1.0-313.0-0.0,1,0,80,,,,,,44.0,,2.0,,,,,,,,,,,,,,,,,,,,24.0,1.0,,
191,,isi,,html-keyboard-response,191,932749,0.0-1.0-314.0,0,0,80,,,,,,44.0,,2.0,,,,,,,,,,,,,,,,,,,,25.0,1.5,,
192,,iti,,html-keyboard-response,192,933752,0.0-1.0-316.0,0,0,80,,,,,,44.0,,2.0,,,,,,,,,,,,,,,,,,,,26.5,1.0,,
193,,rl_choice,,html-keyboard-response,193,935256,0.0-1.0-318.0,0,0,80,,,,,,45.0,45.0,2.0,hard,2000.0,2000.0,0.0,40.0,60.0,40.0,60.0,C,D,/static/Simple_RL/Stimuli/Fractals_stims/C.jpg,/static/Simple_RL/Stimuli/Fractals_stims/D.jpg,,,,,,,,27.5,1.5,1.0,
194,,rl_choice_warning,,html-keyboard-response,194,936258,0.0-1.0-320.0-0.0,1,0,80,,,,,,45.0,,2.0,,,,,,,,,,,,,,,,,,,,29.0,1.0,,
195,,isi,,html-keyboard-response,195,938263,0.0-1.0-321.0,0,0,80,,,,,,45.0,,2.0,,,,,,,,,,,,,,,,,,,,30.0,2.0,,
196,,iti,,html-keyboard-response,196,940272,0.0-1.0-323.0,0,0,80,,,,,,45.0,,2.0,,,,,,,,,,,,,,,,,,,,32.0,2.0,,
197,,rl_choice,,html-keyboard-response,197,941779,0.0-1.0-325.0,0,0,80,,,,,,46.0,46.0,2.0,hard,2000.0,2000.0,0.0,40.0,60.0,40.0,40.0,C,D,/static/Simple_RL/Stimuli/Fractals_stims/C.jpg,/static/Simple_RL/Stimuli/Fractals_stims/D.jpg,,,,,,,,34.0,1.5,1.0,
198,,rl_choice_warning,,html-keyboard-response,198,942781,0.0-1.0-327.0-0.0,1,0,80,,,,,,46.0,,2.0,,,,,,,,,,,,,,,,,,,,35.5,1.0,,
199,,isi,,html-keyboard-response,199,944787,0.0-1.0-328.0,0,0,80,,,,,,46.0,,2.0,,,,,,,,,,,,,,,,,,,,36.5,2.0,,
200,,iti,,html-keyboard-response,200,946792,0.0-1.0-330.0,0,0,80,,,,,,46.0,,2.0,,,,,,,,,,,,,,,,,,,,38.5,2.0,,
201,,rl_choice,,html-keyboard-response,201,948296,0.0-1.0-332.0,0,0,80,,,,,,47.0,47.0,2.0,hard,1500.0,1500.0,1.0,60.0,40.0,80.0,20.0,D,C,/static/Simple_RL/Stimuli/Fractals_stims/D.jpg,/static/Simple_RL/Stimuli/Fractals_stims/C.jpg,,,,,,,,40.5,1.5,1.0,
202,,rl_choice_warning,,html-keyboard-response,202,949299,0.0-1.0-334.0-0.0,1,0,80,,,,,,47.0,,2.0,,,,,,,,,,,,,,,,,,,,42.0,1.0,,
203,,isi,,html-keyboard-response,203,950805,0.0-1.0-335.0,0,0,80,,,,,,47.0,,2.0,,,,,,,,,,,,,,,,,,,,43.0,1.5,,
204,,iti,,html-keyboard-response,204,952307,0.0-1.0-337.0,0,0,80,,,,,,47.0,,2.0,,,,,,,,,,,,,,,,,,,,44.5,1.5,,
205,,rl_choice,,html-keyboard-response,205,953813,0.0-1.0-339.0,0,0,80,,,,,,48.0,48.0,2.0,easy,3500.0,1000.0,1.0,80.0,20.0,60.0,0.0,B,A,/static/Simple_RL/Stimuli/Fractals_stims/B.jpg,/static/Simple_RL/Stimuli/Fractals_stims/A.jpg,,,,,,,,46.0,1.5,1.0,
206,,rl_choice_warning,,html-keyboard-response,206,954819,0.0-1.0-341.0-0.0,1,0,80,,,,,,48.0,,2.0,,,,,,,,,,,,,,,,,,,,47.5,1.0,,
207,,isi,,html-keyboard-response,207,955821,0.0-1.0-342.0,0,0,80,,,,,,48.0,,2.0,,,,,,,,,,,,,,,,,,,,48.5,1.0,,
208,,iti,,html-keyboard-response,208,959325,0.0-1.0-344.0,0,0,80,,,,,,48.0,,2.0,,,,,,,,,,,,,,,,,,,,49.5,3.5,,
209,,rl_choice,,html-keyboard-response,209,960829,0.0-1.0-346.0,0,0,80,,,,,,49.0,49.0,2.0,hard,1000.0,3500.0,1.0,60.0,40.0,80.0,20.0,D,C,/static/Simple_RL/Stimuli/Fractals_stims/D.jpg,/static/Simple_RL/Stimuli/Fractals_stims/C.jpg,,,,,,,,53.0,1.5,1.0,
210,,rl_choice_warning,,html-keyboard-response,210,961832,0.0-1.0-348.0-0.0,1,0,80,,,,,,49.0,,2.0,,,,,,,,,,,,,,,,,,,,54.5,1.0,,
211,,isi,,html-keyboard-response,211,965336,0.0-1.0-349.0,0,0,80,,,,,,49.0,,2.0,,,,,,,,,,,,,,,,,,,,55.5,3.5,,
212,,iti,,html-keyboard-response,212,966341,0.0-1.0-351.0,0,0,80,,,,,,49.0,,2.0,,,,,,,,,,,,,,,,,,,,59.0,1.0,,
213,,rl_choice,,html-keyboard-response,213,967843,0.0-1.0-353.0,0,0,80,,,,,,50.0,50.0,2.0,easy,1000.0,1500.0,1.0,80.0,20.0,80.0,40.0,B,A,/static/Simple_RL/Stimuli/Fractals_stims/B.jpg,/static/Simple_RL/Stimuli/Fractals_stims/A.jpg,,,,,,,,60.0,1.5,1.0,
214,,rl_choice_warning,,html-keyboard-response,214,968845,0.0-1.0-355.0-0.0,1,0,80,,,,,,50.0,,2.0,,,,,,,,,,,,,,,,,,,,61.5,1.0,,
215,,isi,,html-keyboard-response,215,970350,0.0-1.0-356.0,0,0,80,,,,,,50.0,,2.0,,,,,,,,,,,,,,,,,,,,62.5,1.5,,
216,,iti,,html-keyboard-response,216,971352,0.0-1.0-358.0,0,0,80,,,,,,50.0,,2.0,,,,,,,,,,,,,,,,,,,,64.0,1.0,,
217,,rl_choice,,html-keyboard-response,217,972856,0.0-1.0-360.0,0,0,80,,,,,,51.0,51.0,2.0,easy,1000.0,2000.0,0.0,20.0,80.0,0.0,100.0,A,B,/static/Simple_RL/Stimuli/Fractals_stims/A.jpg,/static/Simple_RL/Stimuli/Fractals_stims/B.jpg,,,,,,,,65.0,1.5,1.0,
218,,rl_choice_warning,,html-keyboard-response,218,973859,0.0-1.0-362.0-0.0,1,0,80,,,,,,51.0,,2.0,,,,,,,,,,,,,,,,,,,,66.5,1.0,,
219,,isi,,html-keyboard-response,219,975864,0.0-1.0-363.0,0,0,80,,,,,,51.0,,2.0,,,,,,,,,,,,,,,,,,,,67.5,2.0,,
220,,iti,,html-keyboard-response,220,976867,0.0-1.0-365.0,0,0,80,,,,,,51.0,,2.0,,,,,,,,,,,,,,,,,,,,69.5,1.0,,
221,,rl_choice,,html-keyboard-response,221,978372,0.0-1.0-367.0,0,0,80,,,,,,52.0,52.0,2.0,easy,3000.0,1500.0,0.0,20.0,80.0,40.0,80.0,A,B,/static/Simple_RL/Stimuli/Fractals_stims/A.jpg,/static/Simple_RL/Stimuli/Fractals_stims/B.jpg,,,,,,,,70.5,1.5,1.0,
222,,rl_choice_warning,,html-keyboard-response,222,979377,0.0-1.0-369.0-0.0,1,0,80,,,,,,52.0,,2.0,,,,,,,,,,,,,,,,,,,,72.0,1.0,,
223,,isi,,html-keyboard-response,223,980883,0.0-1.0-370.0,0,0,80,,,,,,52.0,,2.0,,,,,,,,,,,,,,,,,,,,73.0,1.5,,
224,,iti,,html-keyboard-response,224,983886,0.0-1.0-372.0,0,0,80,,,,,,52.0,,2.0,,,,,,,,,,,,,,,,,,,,74.5,3.0,,
225,,rl_choice,,html-keyboard-response,225,985390,0.0-1.0-374.0,0,0,80,,,,,,53.0,53.0,2.0,hard,2000.0,1000.0,1.0,60.0,40.0,60.0,40.0,D,C,/static/Simple_RL/Stimuli/Fractals_stims/D.jpg,/static/Simple_RL/Stimuli/Fractals_stims/C.jpg,,,,,,,,77.5,1.5,1.0,
226,,rl_choice_warning,,html-keyboard-response,226,986392,0.0-1.0-376.0-0.0,1,0,80,,,,,,53.0,,2.0,,,,,,,,,,,,,,,,,,,,79.0,1.0,,
227,,isi,,html-keyboard-response,227,987395,0.0-1.0-377.0,0,0,80,,,,,,53.0,,2.0,,,,,,,,,,,,,,,,,,,,80.0,1.0,,
228,,iti,,html-keyboard-response,228,989400,0.0-1.0-379.0,0,0,80,,,,,,53.0,,2.0,,,,,,,,,,,,,,,,,,,,81.0,2.0,,
229,,rl_choice,,html-keyboard-response,229,990904,0.0-1.0-381.0,0,0,80,,,,,,54.0,54.0,2.0,easy,2000.0,1500.0,0.0,20.0,80.0,0.0,100.0,A,B,/static/Simple_RL/Stimuli/Fractals_stims/A.jpg,/static/Simple_RL/Stimuli/Fractals_stims/B.jpg,,,,,,,,83.0,1.5,1.0,
230,,rl_choice_warning,,html-keyboard-response,230,991907,0.0-1.0-383.0-0.0,1,0,80,,,,,,54.0,,2.0,,,,,,,,,,,,,,,,,,,,84.5,1.0,,
231,,isi,,html-keyboard-response,231,993413,0.0-1.0-384.0,0,0,80,,,,,,54.0,,2.0,,,,,,,,,,,,,,,,,,,,85.5,1.5,,
232,,iti,,html-keyboard-response,232,995416,0.0-1.0-386.0,0,0,80,,,,,,54.0,,2.0,,,,,,,,,,,,,,,,,,,,87.0,2.0,,
233,,rl_choice,,html-keyboard-response,233,996922,0.0-1.0-388.0,0,0,80,,,,,,55.0,55.0,2.0,easy,1000.0,1000.0,0.0,20.0,80.0,40.0,100.0,A,B,/static/Simple_RL/Stimuli/Fractals_stims/A.jpg,/static/Simple_RL/Stimuli/Fractals_stims/B.jpg,,,,,,,,89.0,1.5,1.0,
234,,rl_choice_warning,,html-keyboard-response,234,997928,0.0-1.0-390.0-0.0,1,0,80,,,,,,55.0,,2.0,,,,,,,,,,,,,,,,,,,,90.5,1.0,,
235,,isi,,html-keyboard-response,235,998931,0.0-1.0-391.0,0,0,80,,,,,,55.0,,2.0,,,,,,,,,,,,,,,,,,,,91.5,1.0,,
236,,iti,,html-keyboard-response,236,999934,0.0-1.0-393.0,0,0,80,,,,,,55.0,,2.0,,,,,,,,,,,,,,,,,,,,92.5,1.0,,
237,,rl_choice,,html-keyboard-response,237,1001439,0.0-1.0-395.0,0,0,80,,,,,,56.0,56.0,2.0,hard,2000.0,1000.0,1.0,60.0,40.0,60.0,20.0,D,C,/static/Simple_RL/Stimuli/Fractals_stims/D.jpg,/static/Simple_RL/Stimuli/Fractals_stims/C.jpg,,,,,,,,93.5,1.5,1.0,
238,,rl_choice_warning,,html-keyboard-response,238,1002440,0.0-1.0-397.0-0.0,1,0,80,,,,,,56.0,,2.0,,,,,,,,,,,,,,,,,,,,95.0,1.0,,
239,,isi,,html-keyboard-response,239,1003443,0.0-1.0-398.0,0,0,80,,,,,,56.0,,2.0,,,,,,,,,,,,,,,,,,,,96.0,1.0,,
240,,iti,,html-keyboard-response,240,1005449,0.0-1.0-400.0,0,0,80,,,,,,56.0,,2.0,,,,,,,,,,,,,,,,,,,,97.0,2.0,,
241,,rl_choice,,html-keyboard-response,241,1006952,0.0-1.0-402.0,0,0,80,,,,,,57.0,57.0,2.0,easy,1000.0,2000.0,1.0,80.0,20.0,80.0,0.0,B,A,/static/Simple_RL/Stimuli/Fractals_stims/B.jpg,/static/Simple_RL/Stimuli/Fractals_stims/A.jpg,,,,,,,,99.0,1.5,1.0,
242,,rl_choice_warning,,html-keyboard-response,242,1007955,0.0-1.0-404.0-0.0,1,0,80,,,,,,57.0,,2.0,,,,,,,,,,,,,,,,,,,,100.5,1.0,,
243,,isi,,html-keyboard-response,243,1009960,0.0-1.0-405.0,0,0,80,,,,,,57.0,,2.0,,,,,,,,,,,,,,,,,,,,101.5,2.0,,
244,,iti,,html-keyboard-response,244,1010963,0.0-1.0-407.0,0,0,80,,,,,,57.0,,2.0,,,,,,,,,,,,,,,,,,,,103.5,1.0,,
245,,rl_choice,,html-keyboard-response,245,1012467,0.0-1.0-409.0,0,0,80,,,,,,58.0,58.0,2.0,hard,1000.0,1500.0,1.0,60.0,40.0,60.0,60.0,D,C,/static/Simple_RL/Stimuli/Fractals_stims/D.jpg,/static/Simple_RL/Stimuli/Fractals_stims/C.jpg,,,,,,,,104.5,1.5,1.0,
246,,rl_choice_warning,,html-keyboard-response,246,1013472,0.0-1.0-411.0-0.0,1,0,80,,,,,,58.0,,2.0,,,,,,,,,,,,,,,,,,,,106.0,1.0,,
247,,isi,,html-keyboard-response,247,1014974,0.0-1.0-412.0,0,0,80,,,,,,58.0,,2.0,,,,,,,,,,,,,,,,,,,,107.0,1.5,,
248,,iti,,html-keyboard-response,248,1015976,0.0-1.0-414.0,0,0,80,,,,,,58.0,,2.0,,,,,,,,,,,,,,,,,,,,108.5,1.0,,
249,,rl_choice,,html-keyboard-response,249,1017481,0.0-1.0-416.0,0,0,80,,,,,,59.0,59.0,2.0,easy,1500.0,3000.0,1.0,80.0,20.0,80.0,40.0,B,A,/static/Simple_RL/Stimuli/Fractals_stims/B.jpg,/static/Simple_RL/Stimuli/Fractals_stims/A.jpg,,,,,,,,109.5,1.5,1.0,
250,,rl_choice_warning,,html-keyboard-response,250,1018483,0.0-1.0-418.0-0.0,1,0,80,,,,,,59.0,,2.0,,,,,,,,,,,,,,,,,,,,111.0,1.0,,
251,,isi,,html-keyboard-response,251,1021486,0.0-1.0-419.0,0,0,80,,,,,,59.0,,2.0,,,,,,,,,,,,,,,,,,,,112.0,3.0,,
252,,iti,,html-keyboard-response,252,1022992,0.0-1.0-421.0,0,0,80,,,,,,59.0,,2.0,,,,,,,,,,,,,,,,,,,,115.0,1.5,,
253,,rl_choice,,html-keyboard-response,253,1024494,0.0-1.0-423.0,0,0,80,,,,,,60.0,60.0,2.0,hard,1500.0,2000.0,0.0,40.0,60.0,40.0,80.0,C,D,/static/Simple_RL/Stimuli/Fractals_stims/C.jpg,/static/Simple_RL/Stimuli/Fractals_stims/D.jpg,,,,,,,,116.5,1.5,1.0,
254,,rl_choice_warning,,html-keyboard-response,254,1025497,0.0-1.0-425.0-0.0,1,0,80,,,,,,60.0,,2.0,,,,,,,,,,,,,,,,,,,,118.0,1.0,,
255,,isi,,html-keyboard-response,255,1027501,0.0-1.0-426.0,0,0,80,,,,,,60.0,,2.0,,,,,,,,,,,,,,,,,,,,119.0,2.0,,
256,,iti,,html-keyboard-response,256,1029006,0.0-1.0-428.0,0,0,80,,,,,,60.0,,2.0,,,,,,,,,,,,,,,,,,,,121.0,1.5,,
257,,rl_choice,,html-keyboard-response,257,1030510,0.0-1.0-430.0,0,0,80,,,,,,61.0,61.0,2.0,hard,1000.0,1000.0,1.0,60.0,40.0,40.0,40.0,D,C,/static/Simple_RL/Stimuli/Fractals_stims/D.jpg,/static/Simple_RL/Stimuli/Fractals_stims/C.jpg,,,,,,,,122.5,1.5,1.0,
258,,rl_choice_warning,,html-keyboard-response,258,1031513,0.0-1.0-432.0-0.0,1,0,80,,,,,,61.0,,2.0,,,,,,,,,,,,,,,,,,,,124.0,1.0,,
259,,isi,,html-keyboard-response,259,1032515,0.0-1.0-433.0,0,0,80,,,,,,61.0,,2.0,,,,,,,,,,,,,,,,,,,,125.0,1.0,,
260,,iti,,html-keyboard-response,260,1033518,0.0-1.0-435.0,0,0,80,,,,,,61.0,,2.0,,,,,,,,,,,,,,,,,,,,126.0,1.0,,
261,,rl_choice,,html-keyboard-response,261,1035022,0.0-1.0-437.0,0,0,80,,,,,,62.0,62.0,2.0,easy,3000.0,1500.0,0.0,20.0,80.0,20.0,80.0,A,B,/static/Simple_RL/Stimuli/Fractals_stims/A.jpg,/static/Simple_RL/Stimuli/Fractals_stims/B.jpg,,,,,,,,127.0,1.5,1.0,
262,,rl_choice_warning,,html-keyboard-response,262,1036026,0.0-1.0-439.0-0.0,1,0,80,,,,,,62.0,,2.0,,,,,,,,,,,,,,,,,,,,128.5,1.0,,
263,,isi,,html-keyboard-response,263,1037529,0.0-1.0-440.0,0,0,80,,,,,,62.0,,2.0,,,,,,,,,,,,,,,,,,,,129.5,1.5,,
264,,iti,,html-keyboard-response,264,1040531,0.0-1.0-442.0,0,0,80,,,,,,62.0,,2.0,,,,,,,,,,,,,,,,,,,,131.0,3.0,,
265,,rl_choice,,html-keyboard-response,265,1042035,0.0-1.0-444.0,0,0,80,,,,,,63.0,63.0,2.0,hard,1000.0,1500.0,1.0,60.0,40.0,60.0,40.0,D,C,/static/Simple_RL/Stimuli/Fractals_stims/D.jpg,/static/Simple_RL/Stimuli/Fractals_stims/C.jpg,,,,,,,,134.0,1.5,1.0,
266,,rl_choice_warning,,html-keyboard-response,266,1043040,0.0-1.0-446.0-0.0,1,0,80,,,,,,63.0,,2.0,,,,,,,,,,,,,,,,,,,,135.5,1.0,,
267,,isi,,html-keyboard-response,267,1044542,0.0-1.0-447.0,0,0,80,,,,,,63.0,,2.0,,,,,,,,,,,,,,,,,,,,136.5,1.5,,
268,,iti,,html-keyboard-response,268,1045544,0.0-1.0-449.0,0,0,80,,,,,,63.0,,2.0,,,,,,,,,,,,,,,,,,,,138.0,1.0,,
269,,rl_choice,,html-keyboard-response,269,1046508,0.0-1.0-451.0,0,0,80,,963.0,,,50.0,64.0,64.0,2.0,hard,3500.0,1000.0,0.0,40.0,60.0,60.0,80.0,C,D,/static/Simple_RL/Stimuli/Fractals_stims/C.jpg,/static/Simple_RL/Stimuli/Fractals_stims/D.jpg,1.0,40.0,60.0,60.0,80.0,C,D,139.0,0.963,0.0,
270,,rl_choice_confirmation,,html-keyboard-response,270,1047047,0.0-1.0-452.0-0.0,0,0,80,,,,,,64.0,,2.0,,,,,,,,,,,,,,,,,,,,139.963,0.537,,
271,,isi,,html-keyboard-response,271,1048053,0.0-1.0-454.0,0,0,80,,,,,,64.0,,2.0,,,,,,,,,,,,,,,,,,,,140.5,1.0,,
272,,feedback,,html-keyboard-response,272,1049055,0.0-1.0-455.0-0.0,0,0,80,,,,,,64.0,,2.0,,,,,,,,,,,,,,,,,,,,141.5,1.0,,
273,,iti,,html-keyboard-response,273,1052558,0.0-1.0-456.0,0,0,80,,,,,,64.0,,2.0,,,,,,,,,,,,,,,,,,,,142.5,3.5,,
274,,rl_choice,,html-keyboard-response,274,1052622,0.0-1.0-458.0,0,0,80,,62.0,,,50.0,65.0,65.0,2.0,easy,1500.0,1000.0,1.0,80.0,20.0,100.0,40.0,B,A,/static/Simple_RL/Stimuli/Fractals_stims/B.jpg,/static/Simple_RL/Stimuli/Fractals_stims/A.jpg,1.0,80.0,20.0,100.0,40.0,B,A,146.0,0.062,0.0,
275,,rl_choice_confirmation,,html-keyboard-response,275,1054062,0.0-1.0-459.0-0.0,0,0,80,,,,,,65.0,,2.0,,,,,,,,,,,,,,,,,,,,146.062,1.438,,
276,,isi,,html-keyboard-response,276,1055069,0.0-1.0-461.0,0,0,80,,,,,,65.0,,2.0,,,,,,,,,,,,,,,,,,,,147.5,1.0,,
277,,feedback,,html-keyboard-response,277,1056071,0.0-1.0-462.0-0.0,0,0,80,,,,,,65.0,,2.0,,,,,,,,,,,,,,,,,,,,148.5,1.0,,
278,,iti,,html-keyboard-response,278,1057573,0.0-1.0-463.0,0,0,80,,,,,,65.0,,2.0,,,,,,,,,,,,,,,,,,,,149.5,1.5,,
279,,rl_choice,,html-keyboard-response,279,1058246,0.0-1.0-465.0,0,0,80,,671.0,,,50.0,66.0,66.0,2.0,hard,1500.0,3000.0,1.0,60.0,40.0,60.0,40.0,D,C,/static/Simple_RL/Stimuli/Fractals_stims/D.jpg,/static/Simple_RL/Stimuli/Fractals_stims/C.jpg,1.0,60.0,40.0,60.0,40.0,D,C,151.0,0.671,0.0,
280,,rl_choice_confirmation,,html-keyboard-response,280,1059078,0.0-1.0-466.0-0.0,0,0,80,,,,,,66.0,,2.0,,,,,,,,,,,,,,,,,,,,151.671,0.829,,
281,,isi,,html-keyboard-response,281,1062084,0.0-1.0-468.0,0,0,80,,,,,,66.0,,2.0,,,,,,,,,,,,,,,,,,,,152.5,3.0,,
282,,feedback,,html-keyboard-response,282,1063090,0.0-1.0-469.0-0.0,0,0,80,,,,,,66.0,,2.0,,,,,,,,,,,,,,,,,,,,155.5,1.0,,
283,,iti,,html-keyboard-response,283,1064595,0.0-1.0-470.0,0,0,80,,,,,,66.0,,2.0,,,,,,,,,,,,,,,,,,,,156.5,1.5,,
284,,rl_choice,,html-keyboard-response,284,1064628,0.0-1.0-472.0,0,0,80,,31.0,,,50.0,67.0,67.0,2.0,hard,1500.0,1500.0,0.0,40.0,60.0,20.0,80.0,C,D,/static/Simple_RL/Stimuli/Fractals_stims/C.jpg,/static/Simple_RL/Stimuli/Fractals_stims/D.jpg,1.0,40.0,60.0,20.0,80.0,C,D,158.0,0.031,0.0,
285,,rl_choice_confirmation,,html-keyboard-response,285,1066100,0.0-1.0-473.0-0.0,0,0,80,,,,,,67.0,,2.0,,,,,,,,,,,,,,,,,,,,158.031,1.469,,
286,,isi,,html-keyboard-response,286,1067605,0.0-1.0-475.0,0,0,80,,,,,,67.0,,2.0,,,,,,,,,,,,,,,,,,,,159.5,1.5,,
287,,feedback,,html-keyboard-response,287,1068612,0.0-1.0-476.0-0.0,0,0,80,,,,,,67.0,,2.0,,,,,,,,,,,,,,,,,,,,161.0,1.0,,
288,,iti,,html-keyboard-response,288,1070116,0.0-1.0-477.0,0,0,80,,,,,,67.0,,2.0,,,,,,,,,,,,,,,,,,,,162.0,1.5,,
289,,rl_choice,,html-keyboard-response,289,1071094,0.0-1.0-479.0,0,0,80,,977.0,,,51.0,68.0,68.0,2.0,hard,3000.0,1000.0,1.0,60.0,40.0,60.0,40.0,D,C,/static/Simple_RL/Stimuli/Fractals_stims/D.jpg,/static/Simple_RL/Stimuli/Fractals_stims/C.jpg,0.0,40.0,60.0,40.0,60.0,C,D,163.5,0.977,0.0,
290,,rl_choice_confirmation,,html-keyboard-response,290,1071622,0.0-1.0-480.0-0.0,0,0,80,,,,,,68.0,,2.0,,,,,,,,,,,,,,,,,,,,164.477,0.523,,
291,,isi,,html-keyboard-response,291,1072628,0.0-1.0-482.0,0,0,80,,,,,,68.0,,2.0,,,,,,,,,,,,,,,,,,,,165.0,1.0,,
292,,feedback,,html-keyboard-response,292,1073630,0.0-1.0-483.0-0.0,0,0,80,,,,,,68.0,,2.0,,,,,,,,,,,,,,,,,,,,166.0,1.0,,
293,,iti,,html-keyboard-response,293,1076633,0.0-1.0-484.0,0,0,80,,,,,,68.0,,2.0,,,,,,,,,,,,,,,,,,,,167.0,3.0,,
294,,rl_choice,,html-keyboard-response,294,1078137,0.0-1.0-486.0,0,0,80,,,,,,69.0,69.0,2.0,easy,1000.0,1000.0,0.0,20.0,80.0,40.0,80.0,A,B,/static/Simple_RL/Stimuli/Fractals_stims/A.jpg,/static/Simple_RL/Stimuli/Fractals_stims/B.jpg,,,,,,,,170.0,1.5,1.0,
295,,rl_choice_warning,,html-keyboard-response,295,1079141,0.0-1.0-488.0-0.0,1,0,80,,,,,,69.0,,2.0,,,,,,,,,,,,,,,,,,,,171.5,1.0,,
296,,isi,,html-keyboard-response,296,1080146,0.0-1.0-489.0,0,0,80,,,,,,69.0,,2.0,,,,,,,,,,,,,,,,,,,,172.5,1.0,,
297,,iti,,html-keyboard-response,297,1081148,0.0-1.0-491.0,0,0,80,,,,,,69.0,,2.0,,,,,,,,,,,,,,,,,,,,173.5,1.0,,
298,,rl_choice,,html-keyboard-response,298,1082654,0.0-1.0-493.0,0,0,80,,,,,,70.0,70.0,2.0,easy,1500.0,1000.0,1.0,80.0,20.0,80.0,20.0,B,A,/static/Simple_RL/Stimuli/Fractals_stims/B.jpg,/static/Simple_RL/Stimuli/Fractals_stims/A.jpg,,,,,,,,174.5,1.5,1.0,
299,,rl_choice_warning,,html-keyboard-response,299,1083657,0.0-1.0-495.0-0.0,1,0,80,,,,,,70.0,,2.0,,,,,,,,,,,,,,,,,,,,176.0,1.0,,
300,,isi,,html-keyboard-response,300,1084660,0.0-1.0-496.0,0,0,80,,,,,,70.0,,2.0,,,,,,,,,,,,,,,,,,,,177.0,1.0,,
301,,iti,,html-keyboard-response,301,1086163,0.0-1.0-498.0,0,0,80,,,,,,70.0,,2.0,,,,,,,,,,,,,,,,,,,,178.0,1.5,,
302,,rl_choice,,html-keyboard-response,302,1086214,0.0-1.0-500.0,0,0,80,,49.0,,,51.0,71.0,71.0,2.0,easy,1500.0,1000.0,0.0,20.0,80.0,40.0,60.0,A,B,/static/Simple_RL/Stimuli/Fractals_stims/A.jpg,/static/Simple_RL/Stimuli/Fractals_stims/B.jpg,0.0,80.0,20.0,60.0,40.0,B,A,179.5,0.049,0.0,
303,,rl_choice_confirmation,,html-keyboard-response,303,1087670,0.0-1.0-501.0-0.0,0,0,80,,,,,,71.0,,2.0,,,,,,,,,,,,,,,,,,,,179.549,1.451,,
304,,isi,,html-keyboard-response,304,1088676,0.0-1.0-503.0,0,0,80,,,,,,71.0,,2.0,,,,,,,,,,,,,,,,,,,,181.0,1.0,,
305,,feedback,,html-keyboard-response,305,1089678,0.0-1.0-504.0-0.0,0,0,80,,,,,,71.0,,2.0,,,,,,,,,,,,,,,,,,,,182.0,1.0,,
306,,iti,,html-keyboard-response,306,1091184,0.0-1.0-505.0,0,0,80,,,,,,71.0,,2.0,,,,,,,,,,,,,,,,,,,,183.0,1.5,,
307,,rl_choice,,html-keyboard-response,307,1091535,0.0-1.0-507.0,0,0,80,,348.0,,,51.0,72.0,72.0,2.0,easy,2000.0,3000.0,0.0,20.0,80.0,20.0,100.0,A,B,/static/Simple_RL/Stimuli/Fractals_stims/A.jpg,/static/Simple_RL/Stimuli/Fractals_stims/B.jpg,0.0,80.0,20.0,100.0,20.0,B,A,184.5,0.348,0.0,
308,,rl_choice_confirmation,,html-keyboard-response,308,1092690,0.0-1.0-508.0-0.0,0,0,80,,,,,,72.0,,2.0,,,,,,,,,,,,,,,,,,,,184.848,1.152,,
309,,isi,,html-keyboard-response,309,1095692,0.0-1.0-510.0,0,0,80,,,,,,72.0,,2.0,,,,,,,,,,,,,,,,,,,,186.0,3.0,,
310,,feedback,,html-keyboard-response,310,1096697,0.0-1.0-511.0-0.0,0,0,80,,,,,,72.0,,2.0,,,,,,,,,,,,,,,,,,,,189.0,1.0,,
311,,iti,,html-keyboard-response,311,1098702,0.0-1.0-512.0,0,0,80,,,,,,72.0,,2.0,,,,,,,,,,,,,,,,,,,,190.0,2.0,,
312,,rl_choice,,html-keyboard-response,312,1098999,0.0-1.0-514.0,0,0,80,,295.0,,,50.0,73.0,73.0,2.0,easy,1000.0,3500.0,0.0,20.0,80.0,40.0,60.0,A,B,/static/Simple_RL/Stimuli/Fractals_stims/A.jpg,/static/Simple_RL/Stimuli/Fractals_stims/B.jpg,1.0,20.0,80.0,40.0,60.0,A,B,192.0,0.295,0.0,
313,,rl_choice_confirmation,,html-keyboard-response,313,1100206,0.0-1.0-515.0-0.0,0,0,80,,,,,,73.0,,2.0,,,,,,,,,,,,,,,,,,,,192.295,1.205,,
314,,isi,,html-keyboard-response,314,1103710,0.0-1.0-517.0,0,0,80,,,,,,73.0,,2.0,,,,,,,,,,,,,,,,,,,,193.5,3.5,,
315,,feedback,,html-keyboard-response,315,1104714,0.0-1.0-518.0-0.0,0,0,80,,,,,,73.0,,2.0,,,,,,,,,,,,,,,,,,,,197.0,1.0,,
316,,iti,,html-keyboard-response,316,1105716,0.0-1.0-519.0,0,0,80,,,,,,73.0,,2.0,,,,,,,,,,,,,,,,,,,,198.0,1.0,,
317,,rl_choice,,html-keyboard-response,317,1105942,0.0-1.0-521.0,0,0,80,,220.0,,,51.0,74.0,74.0,2.0,hard,3000.0,1000.0,0.0,40.0,60.0,40.0,40.0,C,D,/static/Simple_RL/Stimuli/Fractals_stims/C.jpg,/static/Simple_RL/Stimuli/Fractals_stims/D.jpg,0.0,60.0,40.0,40.0,40.0,D,C,199.0,0.22,0.0,
318,,rl_choice_confirmation,,html-keyboard-response,318,1107225,0.0-1.0-522.0-0.0,0,0,80,,,,,,74.0,,2.0,,,,,,,,,,,,,,,,,,,,199.22,1.28,,
319,,isi,,html-keyboard-response,319,1108228,0.0-1.0-524.0,0,0,80,,,,,,74.0,,2.0,,,,,,,,,,,,,,,,,,,,200.5,1.0,,
320,,feedback,,html-keyboard-response,320,1109230,0.0-1.0-525.0-0.0,0,0,80,,,,,,74.0,,2.0,,,,,,,,,,,,,,,,,,,,201.5,1.0,,
321,,iti,,html-keyboard-response,321,1112233,0.0-1.0-526.0,0,0,80,,,,,,74.0,,2.0,,,,,,,,,,,,,,,,,,,,202.5,3.0,,
322,,rl_choice,,html-keyboard-response,322,1113024,0.0-1.0-528.0,0,0,80,,788.0,,,51.0,75.0,75.0,2.0,easy,1000.0,1000.0,0.0,20.0,80.0,0.0,60.0,A,B,/static/Simple_RL/Stimuli/Fractals_stims/A.jpg,/static/Simple_RL/Stimuli/Fractals_stims/B.jpg,0.0,80.0,20.0,60.0,0.0,B,A,205.5,0.788,0.0,
323,,rl_choice_confirmation,,html-keyboard-response,323,1113738,0.0-1.0-529.0-0.0,0,0,80,,,,,,75.0,,2.0,,,,,,,,,,,,,,,,,,,,206.288,0.712,,
324,,isi,,html-keyboard-response,324,1114741,0.0-1.0-531.0,0,0,80,,,,,,75.0,,2.0,,,,,,,,,,,,,,,,,,,,207.0,1.0,,
325,,feedback,,html-keyboard-response,325,1115748,0.0-1.0-532.0-0.0,0,0,80,,,,,,75.0,,2.0,,,,,,,,,,,,,,,,,,,,208.0,1.0,,
326,,iti,,html-keyboard-response,326,1116751,0.0-1.0-533.0,0,0,80,,,,,,75.0,,2.0,,,,,,,,,,,,,,,,,,,,209.0,1.0,,
327,,rl_choice,,html-keyboard-response,327,1118257,0.0-1.0-535.0,0,0,80,,,,,,76.0,76.0,2.0,easy,2000.0,1500.0,1.0,80.0,20.0,100.0,20.0,B,A,/static/Simple_RL/Stimuli/Fractals_stims/B.jpg,/static/Simple_RL/Stimuli/Fractals_stims/A.jpg,,,,,,,,210.0,1.5,1.0,
328,,rl_choice_warning,,html-keyboard-response,328,1119263,0.0-1.0-537.0-0.0,1,0,80,,,,,,76.0,,2.0,,,,,,,,,,,,,,,,,,,,211.5,1.0,,
329,,isi,,html-keyboard-response,329,1120767,0.0-1.0-538.0,0,0,80,,,,,,76.0,,2.0,,,,,,,,,,,,,,,,,,,,212.5,1.5,,
330,,iti,,html-keyboard-response,330,1122773,0.0-1.0-540.0,0,0,80,,,,,,76.0,,2.0,,,,,,,,,,,,,,,,,,,,214.0,2.0,,
331,,rl_choice,,html-keyboard-response,331,1123104,0.0-1.0-542.0,0,0,80,,328.0,,,51.0,77.0,77.0,2.0,easy,1000.0,1000.0,0.0,20.0,80.0,0.0,80.0,A,B,/static/Simple_RL/Stimuli/Fractals_stims/A.jpg,/static/Simple_RL/Stimuli/Fractals_stims/B.jpg,0.0,80.0,20.0,80.0,0.0,B,A,216.0,0.328,0.0,
332,,rl_choice_confirmation,,html-keyboard-response,332,1124278,0.0-1.0-543.0-0.0,0,0,80,,,,,,77.0,,2.0,,,,,,,,,,,,,,,,,,,,216.328,1.172,,
333,,isi,,html-keyboard-response,333,1125283,0.0-1.0-545.0,0,0,80,,,,,,77.0,,2.0,,,,,,,,,,,,,,,,,,,,217.5,1.0,,
334,,feedback,,html-keyboard-response,334,1126286,0.0-1.0-546.0-0.0,0,0,80,,,,,,77.0,,2.0,,,,,,,,,,,,,,,,,,,,218.5,1.0,,
335,,iti,,html-keyboard-response,335,1127291,0.0-1.0-547.0,0,0,80,,,,,,77.0,,2.0,,,,,,,,,,,,,,,,,,,,219.5,1.0,,
336,,rl_choice,,html-keyboard-response,336,1127748,0.0-1.0-549.0,0,0,80,,456.0,,,51.0,78.0,78.0,2.0,hard,1500.0,1000.0,0.0,40.0,60.0,20.0,60.0,C,D,/static/Simple_RL/Stimuli/Fractals_stims/C.jpg,/static/Simple_RL/Stimuli/Fractals_stims/D.jpg,0.0,60.0,40.0,60.0,20.0,D,C,220.5,0.456,0.0,
337,,rl_choice_confirmation,,html-keyboard-response,337,1128793,0.0-1.0-550.0-0.0,0,0,80,,,,,,78.0,,2.0,,,,,,,,,,,,,,,,,,,,220.956,1.044,,
338,,isi,,html-keyboard-response,338,1129796,0.0-1.0-552.0,0,0,80,,,,,,78.0,,2.0,,,,,,,,,,,,,,,,,,,,222.0,1.0,,
339,,feedback,,html-keyboard-response,339,1130802,0.0-1.0-553.0-0.0,0,0,80,,,,,,78.0,,2.0,,,,,,,,,,,,,,,,,,,,223.0,1.0,,
340,,iti,,html-keyboard-response,340,1132308,0.0-1.0-554.0,0,0,80,,,,,,78.0,,2.0,,,,,,,,,,,,,,,,,,,,224.0,1.5,,
341,,rl_choice,,html-keyboard-response,341,1132648,0.0-1.0-556.0,0,0,80,,337.0,,,51.0,79.0,79.0,2.0,easy,2000.0,2000.0,1.0,80.0,20.0,100.0,0.0,B,A,/static/Simple_RL/Stimuli/Fractals_stims/B.jpg,/static/Simple_RL/Stimuli/Fractals_stims/A.jpg,0.0,20.0,80.0,0.0,100.0,A,B,225.5,0.337,0.0,
342,,rl_choice_confirmation,,html-keyboard-response,342,1133814,0.0-1.0-557.0-0.0,0,0,80,,,,,,79.0,,2.0,,,,,,,,,,,,,,,,,,,,225.837,1.163,,
343,,isi,,html-keyboard-response,343,1135817,0.0-1.0-559.0,0,0,80,,,,,,79.0,,2.0,,,,,,,,,,,,,,,,,,,,227.0,2.0,,
344,,feedback,,html-keyboard-response,344,1136823,0.0-1.0-560.0-0.0,0,0,80,,,,,,79.0,,2.0,,,,,,,,,,,,,,,,,,,,229.0,1.0,,
345,,iti,,html-keyboard-response,345,1138825,0.0-1.0-561.0,0,0,80,,,,,,79.0,,2.0,,,,,,,,,,,,,,,,,,,,230.0,2.0,,0.72
346,,final_tally,,html-keyboard-response,346,1139878,0.0-2.0,0,0,80,,1050.0,,,50.0,,,,,,,,,,,,,,,,,,,,,,,,,,
347,,,,html-keyboard-response,347,1140651,0.0-3.0,0,0,80,,754.0,,,50.0,,,,,,,,,,,,,,,,,,,,,,,,,,
