,success,ttype,start_time,trial_type,trial_index,time_elapsed,internal_node_id,warning,missed_checkup,PID,view_history,rt,responses,repeat_instructions,key_press,index,trial_num,block,iti,pair_type,high_size_on_left,left_size_group,right_size_group,left_size_num,right_size_num,left_category,right_category,left_exemplar,right_exemplar,left_index,right_index,left_img_path,right_img_path,left_chosen,chosen_category,unchosen_category,chosen_size_group,unchosen_size_group,chosen_size_num,unchosen_size_num,chosen_exemplar,unchosen_exemplar,accuracy,onset,duration,no_response,size_final_tally
0,True,full_screen,d06102022hr2052,fullscreen,0,2499,0.0-0.0,0,0,10,,,,,,,,,,,,,,,,,,,,,,,,,,,,,,,,,,,,,
1,,size_instructions,,instructions,1,41631,0.0-1.0-0.0-0.0,0,0,10,"[{""page_index"":0,""viewing_time"":5441},{""page_index"":1,""viewing_time"":5301},{""page_index"":2,""viewing_time"":6661},{""page_index"":3,""viewing_time"":12403},{""page_index"":4,""viewing_time"":4430},{""page_index"":5,""viewing_time"":4894}]",39131.0,,,,,,,,,,,,,,,,,,,,,,,,,,,,,,,,,,,
2,,size_comprehension_check,,survey-multi-choice,2,54575,0.0-1.0-0.0-1.0,0,0,10,,12940.0,"{""Q0"":""True"",""Q1"":""Size in the real world"",""Q2"":""True"",""Q3"":""pointer finger for left and middle finger for right""}",0.0,,,,,,,,,,,,,,,,,,,,,,,,,,,,,,,,,
3,,,,html-keyboard-response,3,57490,0.0-1.0-1.0,0,0,10,,2910.0,,,83.0,,,,,,,,,,,,,,,,,,,,,,,,,,,,,,,,
4,,start_run,,html-keyboard-response,4,61060,0.0-1.0-2.0,0,0,10,,3570.0,,,84.0,,,,,,,,,,,,,,,,,,,,,,,,,,,,,,,,
5,,size_choice,,html-keyboard-response,5,61597,0.0-1.0-3.0,0,0,10,,536.0,,,50.0,0.0,0.0,1.0,4000.0,S-M,1.0,M,S,2.0,1.0,basketball,paperclip,basketball2,paperclip10,51.0,119.0,/static/Size_judgement/Stimuli/Size_stims/M/basketball/basketball8.jpg,/static/Size_judgement/Stimuli/Size_stims/S/paperclip/paperclip10.jpg,1.0,basketball,paperclip,M,S,2.0,1.0,basketball2,paperclip10,1.0,0.0,0.536,0.0,
6,,size_choice_confirmation,,html-keyboard-response,6,62566,0.0-1.0-4.0-0.0,0,0,10,,,,,,0.0,,1.0,,,,,,,,,,,,,,,,,,,,,,,,,,0.536,0.964,,
7,,iti,,html-keyboard-response,7,66572,0.0-1.0-5.0,0,0,10,,,,,,0.0,,1.0,,,,,,,,,,,,,,,,,,,,,,,,,,1.5,4.0,,
8,,size_choice,,html-keyboard-response,8,66963,0.0-1.0-7.0,0,0,10,,389.0,,,51.0,1.0,1.0,1.0,5500.0,S-S,,S,S,1.0,1.0,die,paperclip,die6,paperclip6,105.0,115.0,/static/Size_judgement/Stimuli/Size_stims/S/die/die1.jpg,/static/Size_judgement/Stimuli/Size_stims/S/paperclip/paperclip6.jpg,0.0,paperclip,die,S,S,1.0,1.0,paperclip6,die6,,5.5,0.389,0.0,
9,,size_choice_confirmation,,html-keyboard-response,9,68075,0.0-1.0-8.0-0.0,0,0,10,,,,,,1.0,,1.0,,,,,,,,,,,,,,,,,,,,,,,,,,5.889,1.111,,
10,,iti,,html-keyboard-response,10,73579,0.0-1.0-9.0,0,0,10,,,,,,1.0,,1.0,,,,,,,,,,,,,,,,,,,,,,,,,,7.0,5.5,,
11,,size_choice,,html-keyboard-response,11,74013,0.0-1.0-11.0,0,0,10,,432.0,,,50.0,2.0,2.0,1.0,1500.0,S-L,1.0,L,S,3.0,1.0,garbagecan,die,garbagecan6,die8,35.0,107.0,/static/Size_judgement/Stimuli/Size_stims/L/garbagecan/garbagecan14.jpg,/static/Size_judgement/Stimuli/Size_stims/S/die/die5.jpg,1.0,garbagecan,die,L,S,3.0,1.0,garbagecan6,die8,1.0,12.5,0.432,0.0,
12,,size_choice_confirmation,,html-keyboard-response,12,75084,0.0-1.0-12.0-0.0,0,0,10,,,,,,2.0,,1.0,,,,,,,,,,,,,,,,,,,,,,,,,,12.932,1.068,,
13,,iti,,html-keyboard-response,13,76587,0.0-1.0-13.0,0,0,10,,,,,,2.0,,1.0,,,,,,,,,,,,,,,,,,,,,,,,,,14.0,1.5,,
14,,size_choice,,html-keyboard-response,14,77336,0.0-1.0-15.0,0,0,10,,748.0,,,51.0,3.0,3.0,1.0,500.0,M-XL,0.0,M,XL,2.0,4.0,handsaw,van,handsaw5,van10,84.0,199.0,/static/Size_judgement/Stimuli/Size_stims/M/handsaw/handsaw1.jpg,/static/Size_judgement/Stimuli/Size_stims/XL/van/van8.jpg,0.0,van,handsaw,XL,M,4.0,2.0,van10,handsaw5,1.0,15.5,0.748,0.0,
15,,size_choice_confirmation,,html-keyboard-response,15,78089,0.0-1.0-16.0-0.0,0,0,10,,,,,,3.0,,1.0,,,,,,,,,,,,,,,,,,,,,,,,,,16.248,0.752,,
16,,iti,,html-keyboard-response,16,78593,0.0-1.0-17.0,0,0,10,,,,,,3.0,,1.0,,,,,,,,,,,,,,,,,,,,,,,,,,17.0,0.5,,
17,,size_choice,,html-keyboard-response,17,79492,0.0-1.0-19.0,0,0,10,,898.0,,,51.0,4.0,4.0,1.0,4500.0,L-XL,1.0,XL,L,4.0,3.0,crane,deskchair,crane4,deskchair1,163.0,10.0,/static/Size_judgement/Stimuli/Size_stims/XL/crane/crane5.jpg,/static/Size_judgement/Stimuli/Size_stims/L/deskchair/deskchair9.jpg,0.0,deskchair,crane,L,XL,3.0,4.0,deskchair1,crane4,0.0,17.5,0.898,0.0,
18,,size_choice_confirmation,,html-keyboard-response,18,80097,0.0-1.0-20.0-0.0,0,0,10,,,,,,4.0,,1.0,,,,,,,,,,,,,,,,,,,,,,,,,,18.398,0.602,,
19,,iti,,html-keyboard-response,19,84598,0.0-1.0-21.0,0,0,10,,,,,,4.0,,1.0,,,,,,,,,,,,,,,,,,,,,,,,,,19.0,4.5,,
20,,size_choice,,html-keyboard-response,20,85225,0.0-1.0-23.0,0,0,10,,626.0,,,50.0,5.0,5.0,1.0,500.0,S-L,1.0,L,S,3.0,1.0,dishwasher,screws,dishwasher8,screws8,27.0,127.0,/static/Size_judgement/Stimuli/Size_stims/L/dishwasher/dishwasher3.jpg,/static/Size_judgement/Stimuli/Size_stims/S/screws/screws10.jpg,1.0,dishwasher,screws,L,S,3.0,1.0,dishwasher8,screws8,1.0,23.5,0.626,0.0,
21,,size_choice_confirmation,,html-keyboard-response,21,86102,0.0-1.0-24.0-0.0,0,0,10,,,,,,5.0,,1.0,,,,,,,,,,,,,,,,,,,,,,,,,,24.126,0.874,,
22,,iti,,html-keyboard-response,22,86603,0.0-1.0-25.0,0,0,10,,,,,,5.0,,1.0,,,,,,,,,,,,,,,,,,,,,,,,,,25.0,0.5,,
23,,size_choice,,html-keyboard-response,23,87212,0.0-1.0-27.0,0,0,10,,607.0,,,51.0,6.0,6.0,1.0,500.0,M-XL,0.0,M,XL,2.0,4.0,ketchup,van,ketchup1,van8,90.0,197.0,/static/Size_judgement/Stimuli/Size_stims/M/ketchup/ketchup8.jpg,/static/Size_judgement/Stimuli/Size_stims/XL/van/van10.jpg,0.0,van,ketchup,XL,M,4.0,2.0,van8,ketchup1,1.0,25.5,0.607,0.0,
24,,size_choice_confirmation,,html-keyboard-response,24,88108,0.0-1.0-28.0-0.0,0,0,10,,,,,,6.0,,1.0,,,,,,,,,,,,,,,,,,,,,,,,,,26.107,0.893,,
25,,iti,,html-keyboard-response,25,88609,0.0-1.0-29.0,0,0,10,,,,,,6.0,,1.0,,,,,,,,,,,,,,,,,,,,,,,,,,27.0,0.5,,
26,,size_choice,,html-keyboard-response,26,89414,0.0-1.0-31.0,0,0,10,,804.0,,,51.0,7.0,7.0,1.0,1500.0,M-L,0.0,M,L,2.0,3.0,coffeemaker,mailbox,coffeemaker8,mailbox8,67.0,47.0,/static/Size_judgement/Stimuli/Size_stims/M/coffeemaker/coffeemaker5.jpg,/static/Size_judgement/Stimuli/Size_stims/L/mailbox/mailbox10.jpg,0.0,mailbox,coffeemaker,L,M,3.0,2.0,mailbox8,coffeemaker8,1.0,27.5,0.804,0.0,
27,,size_choice_confirmation,,html-keyboard-response,27,90112,0.0-1.0-32.0-0.0,0,0,10,,,,,,7.0,,1.0,,,,,,,,,,,,,,,,,,,,,,,,,,28.304,0.696,,
28,,iti,,html-keyboard-response,28,91617,0.0-1.0-33.0,0,0,10,,,,,,7.0,,1.0,,,,,,,,,,,,,,,,,,,,,,,,,,29.0,1.5,,
29,,size_choice,,html-keyboard-response,29,92220,0.0-1.0-35.0,0,0,10,,602.0,,,51.0,8.0,8.0,1.0,500.0,L-XL,0.0,L,XL,3.0,4.0,cooler,car,cooler4,car3,3.0,152.0,/static/Size_judgement/Stimuli/Size_stims/L/cooler/cooler3.jpg,/static/Size_judgement/Stimuli/Size_stims/XL/car/car4.jpg,0.0,car,cooler,XL,L,4.0,3.0,car3,cooler4,1.0,30.5,0.602,0.0,
30,,size_choice_confirmation,,html-keyboard-response,30,93121,0.0-1.0-36.0-0.0,0,0,10,,,,,,8.0,,1.0,,,,,,,,,,,,,,,,,,,,,,,,,,31.102,0.898,,
31,,iti,,html-keyboard-response,31,93623,0.0-1.0-37.0,0,0,10,,,,,,8.0,,1.0,,,,,,,,,,,,,,,,,,,,,,,,,,32.0,0.5,,
32,,size_choice,,html-keyboard-response,32,94516,0.0-1.0-39.0,0,0,10,,891.0,,,51.0,9.0,9.0,1.0,3500.0,M-XL,0.0,M,XL,2.0,4.0,hairdryer,dumptruck,hairdryer7,dumptruck6,76.0,175.0,/static/Size_judgement/Stimuli/Size_stims/M/hairdryer/hairdryer3.jpg,/static/Size_judgement/Stimuli/Size_stims/XL/dumptruck/dumptruck2.jpg,0.0,dumptruck,hairdryer,XL,M,4.0,2.0,dumptruck6,hairdryer7,1.0,32.5,0.891,0.0,
33,,size_choice_confirmation,,html-keyboard-response,33,95128,0.0-1.0-40.0-0.0,0,0,10,,,,,,9.0,,1.0,,,,,,,,,,,,,,,,,,,,,,,,,,33.391,0.609,,
34,,iti,,html-keyboard-response,34,98630,0.0-1.0-41.0,0,0,10,,,,,,9.0,,1.0,,,,,,,,,,,,,,,,,,,,,,,,,,34.0,3.5,,
35,,size_choice,,html-keyboard-response,35,99395,0.0-1.0-43.0,0,0,10,,764.0,,,51.0,10.0,10.0,1.0,500.0,M-M,,M,M,2.0,2.0,ketchup,basketball,ketchup9,basketball9,98.0,58.0,/static/Size_judgement/Stimuli/Size_stims/M/ketchup/ketchup7.jpg,/static/Size_judgement/Stimuli/Size_stims/M/basketball/basketball5.jpg,0.0,basketball,ketchup,M,M,2.0,2.0,basketball9,ketchup9,,37.5,0.764,0.0,
36,,size_choice_confirmation,,html-keyboard-response,36,100137,0.0-1.0-44.0-0.0,0,0,10,,,,,,10.0,,1.0,,,,,,,,,,,,,,,,,,,,,,,,,,38.264,0.736,,
37,,iti,,html-keyboard-response,37,100638,0.0-1.0-45.0,0,0,10,,,,,,10.0,,1.0,,,,,,,,,,,,,,,,,,,,,,,,,,39.0,0.5,,
38,,size_choice,,html-keyboard-response,38,101274,0.0-1.0-47.0,0,0,10,,634.0,,,50.0,11.0,11.0,1.0,3000.0,S-L,1.0,L,S,3.0,1.0,mailbox,screws,mailbox4,screws1,43.0,120.0,/static/Size_judgement/Stimuli/Size_stims/L/mailbox/mailbox5.jpg,/static/Size_judgement/Stimuli/Size_stims/S/screws/screws4.jpg,1.0,mailbox,screws,L,S,3.0,1.0,mailbox4,screws1,1.0,39.5,0.634,0.0,
39,,size_choice_confirmation,,html-keyboard-response,39,102145,0.0-1.0-48.0-0.0,0,0,10,,,,,,11.0,,1.0,,,,,,,,,,,,,,,,,,,,,,,,,,40.134,0.866,,
40,,iti,,html-keyboard-response,40,105147,0.0-1.0-49.0,0,0,10,,,,,,11.0,,1.0,,,,,,,,,,,,,,,,,,,,,,,,,,41.0,3.0,,
41,,size_choice,,html-keyboard-response,41,105824,0.0-1.0-51.0,0,0,10,,675.0,,,51.0,12.0,12.0,1.0,500.0,M-L,0.0,M,L,2.0,3.0,handsaw,deskchair,handsaw9,deskchair2,88.0,11.0,/static/Size_judgement/Stimuli/Size_stims/M/handsaw/handsaw6.jpg,/static/Size_judgement/Stimuli/Size_stims/L/deskchair/deskchair8.jpg,0.0,deskchair,handsaw,L,M,3.0,2.0,deskchair2,handsaw9,1.0,44.0,0.675,0.0,
42,,size_choice_confirmation,,html-keyboard-response,42,106652,0.0-1.0-52.0-0.0,0,0,10,,,,,,12.0,,1.0,,,,,,,,,,,,,,,,,,,,,,,,,,44.675,0.825,,
43,,iti,,html-keyboard-response,43,107153,0.0-1.0-53.0,0,0,10,,,,,,12.0,,1.0,,,,,,,,,,,,,,,,,,,,,,,,,,45.5,0.5,,
44,,size_choice,,html-keyboard-response,44,107666,0.0-1.0-55.0,0,0,10,,512.0,,,51.0,13.0,13.0,1.0,2000.0,S-L,0.0,S,L,1.0,3.0,screws,mailbox,screws4,mailbox1,123.0,40.0,/static/Size_judgement/Stimuli/Size_stims/S/screws/screws6.jpg,/static/Size_judgement/Stimuli/Size_stims/L/mailbox/mailbox3.jpg,0.0,mailbox,screws,L,S,3.0,1.0,mailbox1,screws4,1.0,46.0,0.512,0.0,
45,,size_choice_confirmation,,html-keyboard-response,45,108657,0.0-1.0-56.0-0.0,0,0,10,,,,,,13.0,,1.0,,,,,,,,,,,,,,,,,,,,,,,,,,46.512,0.988,,
46,,iti,,html-keyboard-response,46,110662,0.0-1.0-57.0,0,0,10,,,,,,13.0,,1.0,,,,,,,,,,,,,,,,,,,,,,,,,,47.5,2.0,,
47,,size_choice,,html-keyboard-response,47,111298,0.0-1.0-59.0,0,0,10,,635.0,,,51.0,14.0,14.0,1.0,2000.0,S-XL,0.0,S,XL,1.0,4.0,thread,car,thread3,car10,142.0,159.0,/static/Size_judgement/Stimuli/Size_stims/S/thread/thread4.jpg,/static/Size_judgement/Stimuli/Size_stims/XL/car/car9.jpg,0.0,car,thread,XL,S,4.0,1.0,car10,thread3,1.0,49.5,0.635,0.0,
48,,size_choice_confirmation,,html-keyboard-response,48,112167,0.0-1.0-60.0-0.0,0,0,10,,,,,,14.0,,1.0,,,,,,,,,,,,,,,,,,,,,,,,,,50.135,0.865,,
49,,iti,,html-keyboard-response,49,114172,0.0-1.0-61.0,0,0,10,,,,,,14.0,,1.0,,,,,,,,,,,,,,,,,,,,,,,,,,51.0,2.0,,
50,,size_choice,,html-keyboard-response,50,115321,0.0-1.0-63.0,0,0,10,,1149.0,,,50.0,15.0,15.0,1.0,2500.0,M-M,,M,M,2.0,2.0,handsaw,hairdryer,handsaw1,hairdryer2,80.0,71.0,/static/Size_judgement/Stimuli/Size_stims/M/handsaw/handsaw8.jpg,/static/Size_judgement/Stimuli/Size_stims/M/hairdryer/hairdryer12.jpg,1.0,handsaw,hairdryer,M,M,2.0,2.0,handsaw1,hairdryer2,,53.0,1.149,0.0,
51,,size_choice_confirmation,,html-keyboard-response,51,115676,0.0-1.0-64.0-0.0,0,0,10,,,,,,15.0,,1.0,,,,,,,,,,,,,,,,,,,,,,,,,,54.149,0.351,,
52,,iti,,html-keyboard-response,52,118180,0.0-1.0-65.0,0,0,10,,,,,,15.0,,1.0,,,,,,,,,,,,,,,,,,,,,,,,,,54.5,2.5,,
53,,size_choice,,html-keyboard-response,53,118811,0.0-1.0-67.0,0,0,10,,630.0,,,50.0,16.0,16.0,1.0,4000.0,S-L,1.0,L,S,3.0,1.0,deskchair,screws,deskchair9,screws3,18.0,122.0,/static/Size_judgement/Stimuli/Size_stims/L/deskchair/deskchair3.jpg,/static/Size_judgement/Stimuli/Size_stims/S/screws/screws7.jpg,1.0,deskchair,screws,L,S,3.0,1.0,deskchair9,screws3,1.0,57.0,0.63,0.0,
54,,size_choice_confirmation,,html-keyboard-response,54,119687,0.0-1.0-68.0-0.0,0,0,10,,,,,,16.0,,1.0,,,,,,,,,,,,,,,,,,,,,,,,,,57.63,0.87,,
55,,iti,,html-keyboard-response,55,123692,0.0-1.0-69.0,0,0,10,,,,,,16.0,,1.0,,,,,,,,,,,,,,,,,,,,,,,,,,58.5,4.0,,
56,,size_choice,,html-keyboard-response,56,124784,0.0-1.0-71.0,0,0,10,,1091.0,,,50.0,17.0,17.0,1.0,2500.0,M-M,,M,M,2.0,2.0,handsaw,hairdryer,handsaw8,hairdryer3,87.0,72.0,/static/Size_judgement/Stimuli/Size_stims/M/handsaw/handsaw7.jpg,/static/Size_judgement/Stimuli/Size_stims/M/hairdryer/hairdryer17.jpg,1.0,handsaw,hairdryer,M,M,2.0,2.0,handsaw8,hairdryer3,,62.5,1.091,0.0,
57,,size_choice_confirmation,,html-keyboard-response,57,125196,0.0-1.0-72.0-0.0,0,0,10,,,,,,17.0,,1.0,,,,,,,,,,,,,,,,,,,,,,,,,,63.591,0.409,,
58,,iti,,html-keyboard-response,58,127697,0.0-1.0-73.0,0,0,10,,,,,,17.0,,1.0,,,,,,,,,,,,,,,,,,,,,,,,,,64.0,2.5,,
59,,size_choice,,html-keyboard-response,59,128550,0.0-1.0-75.0,0,0,10,,852.0,,,50.0,18.0,18.0,1.0,500.0,L-L,,L,L,3.0,3.0,dishwasher,cooler,dishwasher7,cooler8,26.0,7.0,/static/Size_judgement/Stimuli/Size_stims/L/dishwasher/dishwasher7.jpg,/static/Size_judgement/Stimuli/Size_stims/L/cooler/cooler5.jpg,1.0,dishwasher,cooler,L,L,3.0,3.0,dishwasher7,cooler8,,66.5,0.852,0.0,
60,,size_choice_confirmation,,html-keyboard-response,60,129202,0.0-1.0-76.0-0.0,0,0,10,,,,,,18.0,,1.0,,,,,,,,,,,,,,,,,,,,,,,,,,67.352,0.648,,
61,,iti,,html-keyboard-response,61,129703,0.0-1.0-77.0,0,0,10,,,,,,18.0,,1.0,,,,,,,,,,,,,,,,,,,,,,,,,,68.0,0.5,,
62,,size_choice,,html-keyboard-response,62,130394,0.0-1.0-79.0,0,0,10,,691.0,,,50.0,19.0,19.0,1.0,3500.0,M-XL,1.0,XL,M,4.0,2.0,car,basketball,car5,basketball8,154.0,57.0,/static/Size_judgement/Stimuli/Size_stims/XL/car/car11.jpg,/static/Size_judgement/Stimuli/Size_stims/M/basketball/basketball7.jpg,1.0,car,basketball,XL,M,4.0,2.0,car5,basketball8,1.0,68.5,0.691,0.0,
63,,size_choice_confirmation,,html-keyboard-response,63,131207,0.0-1.0-80.0-0.0,0,0,10,,,,,,19.0,,1.0,,,,,,,,,,,,,,,,,,,,,,,,,,69.191,0.809,,
64,,iti,,html-keyboard-response,64,134711,0.0-1.0-81.0,0,0,10,,,,,,19.0,,1.0,,,,,,,,,,,,,,,,,,,,,,,,,,70.0,3.5,,
65,,size_choice,,html-keyboard-response,65,135609,0.0-1.0-83.0,0,0,10,,897.0,,,50.0,20.0,20.0,1.0,500.0,S-M,1.0,M,S,2.0,1.0,hairdryer,screws,hairdryer5,screws5,74.0,124.0,/static/Size_judgement/Stimuli/Size_stims/M/hairdryer/hairdryer15.jpg,/static/Size_judgement/Stimuli/Size_stims/S/screws/screws2.jpg,1.0,hairdryer,screws,M,S,2.0,1.0,hairdryer5,screws5,1.0,73.5,0.897,0.0,
66,,size_choice_confirmation,,html-keyboard-response,66,136215,0.0-1.0-84.0-0.0,0,0,10,,,,,,20.0,,1.0,,,,,,,,,,,,,,,,,,,,,,,,,,74.397,0.603,,
67,,iti,,html-keyboard-response,67,136716,0.0-1.0-85.0,0,0,10,,,,,,20.0,,1.0,,,,,,,,,,,,,,,,,,,,,,,,,,75.0,0.5,,
68,,size_choice,,html-keyboard-response,68,137794,0.0-1.0-87.0,0,0,10,,1077.0,,,51.0,21.0,21.0,1.0,500.0,M-L,0.0,M,L,2.0,3.0,basketball,cooler,basketball3,cooler9,52.0,8.0,/static/Size_judgement/Stimuli/Size_stims/M/basketball/basketball10.jpg,/static/Size_judgement/Stimuli/Size_stims/L/cooler/cooler7.jpg,0.0,cooler,basketball,L,M,3.0,2.0,cooler9,basketball3,1.0,75.5,1.077,0.0,
69,,size_choice_confirmation,,html-keyboard-response,69,138220,0.0-1.0-88.0-0.0,0,0,10,,,,,,21.0,,1.0,,,,,,,,,,,,,,,,,,,,,,,,,,76.577,0.423,,
70,,iti,,html-keyboard-response,70,138722,0.0-1.0-89.0,0,0,10,,,,,,21.0,,1.0,,,,,,,,,,,,,,,,,,,,,,,,,,77.0,0.5,,
71,,size_choice,,html-keyboard-response,71,139742,0.0-1.0-91.0,0,0,10,,1019.0,,,50.0,22.0,22.0,1.0,500.0,S-S,,S,S,1.0,1.0,thread,die,thread10,die1,149.0,100.0,/static/Size_judgement/Stimuli/Size_stims/S/thread/thread9.jpg,/static/Size_judgement/Stimuli/Size_stims/S/die/die8.jpg,1.0,thread,die,S,S,1.0,1.0,thread10,die1,,77.5,1.019,0.0,
72,,size_choice_confirmation,,html-keyboard-response,72,140226,0.0-1.0-92.0-0.0,0,0,10,,,,,,22.0,,1.0,,,,,,,,,,,,,,,,,,,,,,,,,,78.519,0.481,,
73,,iti,,html-keyboard-response,73,140727,0.0-1.0-93.0,0,0,10,,,,,,22.0,,1.0,,,,,,,,,,,,,,,,,,,,,,,,,,79.0,0.5,,
74,,size_choice,,html-keyboard-response,74,141732,0.0-1.0-95.0,0,0,10,,1003.0,,,51.0,23.0,23.0,1.0,1500.0,M-XL,0.0,M,XL,2.0,4.0,hairdryer,dumptruck,hairdryer1,dumptruck5,70.0,174.0,/static/Size_judgement/Stimuli/Size_stims/M/hairdryer/hairdryer11.jpg,/static/Size_judgement/Stimuli/Size_stims/XL/dumptruck/dumptruck3.jpg,0.0,dumptruck,hairdryer,XL,M,4.0,2.0,dumptruck5,hairdryer1,1.0,79.5,1.003,0.0,
75,,size_choice_confirmation,,html-keyboard-response,75,142230,0.0-1.0-96.0-0.0,0,0,10,,,,,,23.0,,1.0,,,,,,,,,,,,,,,,,,,,,,,,,,80.503,0.497,,
76,,iti,,html-keyboard-response,76,143735,0.0-1.0-97.0,0,0,10,,,,,,23.0,,1.0,,,,,,,,,,,,,,,,,,,,,,,,,,81.0,1.5,,
77,,size_choice,,html-keyboard-response,77,144447,0.0-1.0-99.0,0,0,10,,712.0,,,51.0,24.0,24.0,1.0,500.0,M-XL,0.0,M,XL,2.0,4.0,hairdryer,van,hairdryer4,van5,73.0,194.0,/static/Size_judgement/Stimuli/Size_stims/M/hairdryer/hairdryer16.jpg,/static/Size_judgement/Stimuli/Size_stims/XL/van/van3.jpg,0.0,van,hairdryer,XL,M,4.0,2.0,van5,hairdryer4,1.0,82.5,0.712,0.0,
78,,size_choice_confirmation,,html-keyboard-response,78,145239,0.0-1.0-100.0-0.0,0,0,10,,,,,,24.0,,1.0,,,,,,,,,,,,,,,,,,,,,,,,,,83.212,0.788,,
79,,iti,,html-keyboard-response,79,145740,0.0-1.0-101.0,0,0,10,,,,,,24.0,,1.0,,,,,,,,,,,,,,,,,,,,,,,,,,84.0,0.5,,
80,,size_choice,,html-keyboard-response,80,146400,0.0-1.0-103.0,0,0,10,,659.0,,,50.0,25.0,25.0,1.0,4000.0,M-XL,1.0,XL,M,4.0,2.0,tractor,handsaw,tractor8,handsaw10,187.0,89.0,/static/Size_judgement/Stimuli/Size_stims/XL/tractor/tractor10.jpg,/static/Size_judgement/Stimuli/Size_stims/M/handsaw/handsaw10.jpg,1.0,tractor,handsaw,XL,M,4.0,2.0,tractor8,handsaw10,1.0,84.5,0.659,0.0,
81,,size_choice_confirmation,,html-keyboard-response,81,147244,0.0-1.0-104.0-0.0,0,0,10,,,,,,25.0,,1.0,,,,,,,,,,,,,,,,,,,,,,,,,,85.159,0.841,,
82,,iti,,html-keyboard-response,82,151250,0.0-1.0-105.0,0,0,10,,,,,,25.0,,1.0,,,,,,,,,,,,,,,,,,,,,,,,,,86.0,4.0,,
83,,size_choice,,html-keyboard-response,83,152014,0.0-1.0-107.0,0,0,10,,763.0,,,51.0,26.0,26.0,1.0,3000.0,M-L,0.0,M,L,2.0,3.0,coffeemaker,garbagecan,coffeemaker6,garbagecan10,65.0,39.0,/static/Size_judgement/Stimuli/Size_stims/M/coffeemaker/coffeemaker8.jpg,/static/Size_judgement/Stimuli/Size_stims/L/garbagecan/garbagecan11.jpg,0.0,garbagecan,coffeemaker,L,M,3.0,2.0,garbagecan10,coffeemaker6,1.0,90.0,0.763,0.0,
84,,size_choice_confirmation,,html-keyboard-response,84,152754,0.0-1.0-108.0-0.0,0,0,10,,,,,,26.0,,1.0,,,,,,,,,,,,,,,,,,,,,,,,,,90.763,0.737,,
85,,iti,,html-keyboard-response,85,155756,0.0-1.0-109.0,0,0,10,,,,,,26.0,,1.0,,,,,,,,,,,,,,,,,,,,,,,,,,91.5,3.0,,
86,,size_choice,,html-keyboard-response,86,156857,0.0-1.0-111.0,0,0,10,,1100.0,,,51.0,27.0,27.0,1.0,500.0,S-S,,S,S,1.0,1.0,paperclip,teabag,paperclip8,teabag9,117.0,138.0,/static/Size_judgement/Stimuli/Size_stims/S/paperclip/paperclip5.jpg,/static/Size_judgement/Stimuli/Size_stims/S/teabag/teabag5.jpg,0.0,teabag,paperclip,S,S,1.0,1.0,teabag9,paperclip8,,94.5,1.1,0.0,
87,,size_choice_confirmation,,html-keyboard-response,87,157261,0.0-1.0-112.0-0.0,0,0,10,,,,,,27.0,,1.0,,,,,,,,,,,,,,,,,,,,,,,,,,95.6,0.4,,
88,,iti,,html-keyboard-response,88,157762,0.0-1.0-113.0,0,0,10,,,,,,27.0,,1.0,,,,,,,,,,,,,,,,,,,,,,,,,,96.0,0.5,,
89,,size_choice,,html-keyboard-response,89,158499,0.0-1.0-115.0,0,0,10,,736.0,,,51.0,28.0,28.0,1.0,4500.0,S-L,0.0,S,L,1.0,3.0,die,mailbox,die10,mailbox6,109.0,45.0,/static/Size_judgement/Stimuli/Size_stims/S/die/die6.jpg,/static/Size_judgement/Stimuli/Size_stims/L/mailbox/mailbox6.jpg,0.0,mailbox,die,L,S,3.0,1.0,mailbox6,die10,1.0,96.5,0.736,0.0,
90,,size_choice_confirmation,,html-keyboard-response,90,159268,0.0-1.0-116.0-0.0,0,0,10,,,,,,28.0,,1.0,,,,,,,,,,,,,,,,,,,,,,,,,,97.236,0.764,,
91,,iti,,html-keyboard-response,91,163773,0.0-1.0-117.0,0,0,10,,,,,,28.0,,1.0,,,,,,,,,,,,,,,,,,,,,,,,,,98.0,4.5,,
92,,size_choice,,html-keyboard-response,92,164730,0.0-1.0-119.0,0,0,10,,956.0,,,51.0,29.0,29.0,1.0,1000.0,L-L,,L,L,3.0,3.0,dishwasher,garbagecan,dishwasher9,garbagecan9,28.0,38.0,/static/Size_judgement/Stimuli/Size_stims/L/dishwasher/dishwasher2.jpg,/static/Size_judgement/Stimuli/Size_stims/L/garbagecan/garbagecan12.jpg,0.0,garbagecan,dishwasher,L,L,3.0,3.0,garbagecan9,dishwasher9,,102.5,0.956,0.0,
93,,size_choice_confirmation,,html-keyboard-response,93,165277,0.0-1.0-120.0-0.0,0,0,10,,,,,,29.0,,1.0,,,,,,,,,,,,,,,,,,,,,,,,,,103.456,0.544,,
94,,iti,,html-keyboard-response,94,166279,0.0-1.0-121.0,0,0,10,,,,,,29.0,,1.0,,,,,,,,,,,,,,,,,,,,,,,,,,104.0,1.0,,
95,,size_choice,,html-keyboard-response,95,167030,0.0-1.0-123.0,0,0,10,,750.0,,,50.0,30.0,30.0,1.0,1000.0,S-XL,1.0,XL,S,4.0,1.0,crane,paperclip,crane1,paperclip3,160.0,112.0,/static/Size_judgement/Stimuli/Size_stims/XL/crane/crane7.jpg,/static/Size_judgement/Stimuli/Size_stims/S/paperclip/paperclip1.jpg,1.0,crane,paperclip,XL,S,4.0,1.0,crane1,paperclip3,1.0,105.0,0.75,0.0,
96,,size_choice_confirmation,,html-keyboard-response,96,167783,0.0-1.0-124.0-0.0,0,0,10,,,,,,30.0,,1.0,,,,,,,,,,,,,,,,,,,,,,,,,,105.75,0.75,,
97,,iti,,html-keyboard-response,97,168786,0.0-1.0-125.0,0,0,10,,,,,,30.0,,1.0,,,,,,,,,,,,,,,,,,,,,,,,,,106.5,1.0,,
98,,size_choice,,html-keyboard-response,98,169369,0.0-1.0-127.0,0,0,10,,583.0,,,50.0,31.0,31.0,1.0,1000.0,S-XL,1.0,XL,S,4.0,1.0,crane,paperclip,crane2,paperclip7,161.0,116.0,/static/Size_judgement/Stimuli/Size_stims/XL/crane/crane6.jpg,/static/Size_judgement/Stimuli/Size_stims/S/paperclip/paperclip7.jpg,1.0,crane,paperclip,XL,S,4.0,1.0,crane2,paperclip7,1.0,107.5,0.583,0.0,
99,,size_choice_confirmation,,html-keyboard-response,99,170290,0.0-1.0-128.0-0.0,0,0,10,,,,,,31.0,,1.0,,,,,,,,,,,,,,,,,,,,,,,,,,108.083,0.917,,
100,,iti,,html-keyboard-response,100,171293,0.0-1.0-129.0,0,0,10,,,,,,31.0,,1.0,,,,,,,,,,,,,,,,,,,,,,,,,,109.0,1.0,,
101,,size_choice,,html-keyboard-response,101,171957,0.0-1.0-131.0,0,0,10,,663.0,,,51.0,32.0,32.0,1.0,5000.0,M-L,0.0,M,L,2.0,3.0,handsaw,dishwasher,handsaw2,dishwasher4,81.0,23.0,/static/Size_judgement/Stimuli/Size_stims/M/handsaw/handsaw9.jpg,/static/Size_judgement/Stimuli/Size_stims/L/dishwasher/dishwasher5.jpg,0.0,dishwasher,handsaw,L,M,3.0,2.0,dishwasher4,handsaw2,1.0,110.0,0.663,0.0,
102,,size_choice_confirmation,,html-keyboard-response,102,172797,0.0-1.0-132.0-0.0,0,0,10,,,,,,32.0,,1.0,,,,,,,,,,,,,,,,,,,,,,,,,,110.663,0.837,,
103,,iti,,html-keyboard-response,103,177801,0.0-1.0-133.0,0,0,10,,,,,,32.0,,1.0,,,,,,,,,,,,,,,,,,,,,,,,,,111.5,5.0,,
104,,size_choice,,html-keyboard-response,104,178333,0.0-1.0-135.0,0,0,10,,532.0,,,50.0,33.0,33.0,1.0,5000.0,M-M,,M,M,2.0,2.0,hairdryer,handsaw,hairdryer9,handsaw4,78.0,83.0,/static/Size_judgement/Stimuli/Size_stims/M/hairdryer/hairdryer5.jpg,/static/Size_judgement/Stimuli/Size_stims/M/handsaw/handsaw3.jpg,1.0,hairdryer,handsaw,M,M,2.0,2.0,hairdryer9,handsaw4,,116.5,0.532,0.0,
105,,size_choice_confirmation,,html-keyboard-response,105,179304,0.0-1.0-136.0-0.0,0,0,10,,,,,,33.0,,1.0,,,,,,,,,,,,,,,,,,,,,,,,,,117.032,0.968,,
106,,iti,,html-keyboard-response,106,184306,0.0-1.0-137.0,0,0,10,,,,,,33.0,,1.0,,,,,,,,,,,,,,,,,,,,,,,,,,118.0,5.0,,
107,,size_choice,,html-keyboard-response,107,185066,0.0-1.0-139.0,0,0,10,,759.0,,,51.0,34.0,34.0,1.0,2500.0,L-XL,0.0,L,XL,3.0,4.0,cooler,tractor,cooler1,tractor10,0.0,189.0,/static/Size_judgement/Stimuli/Size_stims/L/cooler/cooler8.jpg,/static/Size_judgement/Stimuli/Size_stims/XL/tractor/tractor8.jpg,0.0,tractor,cooler,XL,L,4.0,3.0,tractor10,cooler1,1.0,123.0,0.759,0.0,
108,,size_choice_confirmation,,html-keyboard-response,108,185811,0.0-1.0-140.0-0.0,0,0,10,,,,,,34.0,,1.0,,,,,,,,,,,,,,,,,,,,,,,,,,123.759,0.741,,
109,,iti,,html-keyboard-response,109,188314,0.0-1.0-141.0,0,0,10,,,,,,34.0,,1.0,,,,,,,,,,,,,,,,,,,,,,,,,,124.5,2.5,,
110,,size_choice,,html-keyboard-response,110,189282,0.0-1.0-143.0,0,0,10,,966.0,,,51.0,35.0,35.0,1.0,1000.0,M-XL,0.0,M,XL,2.0,4.0,coffeemaker,tractor,coffeemaker9,tractor3,68.0,182.0,/static/Size_judgement/Stimuli/Size_stims/M/coffeemaker/coffeemaker7.jpg,/static/Size_judgement/Stimuli/Size_stims/XL/tractor/tractor5.jpg,0.0,tractor,coffeemaker,XL,M,4.0,2.0,tractor3,coffeemaker9,1.0,127.0,0.966,0.0,
111,,size_choice_confirmation,,html-keyboard-response,111,189817,0.0-1.0-144.0-0.0,0,0,10,,,,,,35.0,,1.0,,,,,,,,,,,,,,,,,,,,,,,,,,127.966,0.534,,
112,,iti,,html-keyboard-response,112,190821,0.0-1.0-145.0,0,0,10,,,,,,35.0,,1.0,,,,,,,,,,,,,,,,,,,,,,,,,,128.5,1.0,,
113,,size_choice,,html-keyboard-response,113,192179,0.0-1.0-147.0,0,0,10,,1357.0,,,51.0,36.0,36.0,1.0,500.0,S-M,0.0,S,M,1.0,2.0,thread,ketchup,thread4,ketchup7,143.0,96.0,/static/Size_judgement/Stimuli/Size_stims/S/thread/thread5.jpg,/static/Size_judgement/Stimuli/Size_stims/M/ketchup/ketchup4.jpg,0.0,ketchup,thread,M,S,2.0,1.0,ketchup7,thread4,1.0,129.5,1.357,0.0,
114,,size_choice_confirmation,,html-keyboard-response,114,192326,0.0-1.0-148.0-0.0,0,0,10,,,,,,36.0,,1.0,,,,,,,,,,,,,,,,,,,,,,,,,,130.857,0.143,,
115,,iti,,html-keyboard-response,115,192827,0.0-1.0-149.0,0,0,10,,,,,,36.0,,1.0,,,,,,,,,,,,,,,,,,,,,,,,,,131.0,0.5,,
116,,size_choice,,html-keyboard-response,116,193722,0.0-1.0-151.0,0,0,10,,894.0,,,51.0,37.0,37.0,1.0,1500.0,M-XL,0.0,M,XL,2.0,4.0,coffeemaker,tractor,coffeemaker4,tractor4,63.0,183.0,/static/Size_judgement/Stimuli/Size_stims/M/coffeemaker/coffeemaker11.jpg,/static/Size_judgement/Stimuli/Size_stims/XL/tractor/tractor4.jpg,0.0,tractor,coffeemaker,XL,M,4.0,2.0,tractor4,coffeemaker4,1.0,131.5,0.894,0.0,
117,,size_choice_confirmation,,html-keyboard-response,117,194332,0.0-1.0-152.0-0.0,0,0,10,,,,,,37.0,,1.0,,,,,,,,,,,,,,,,,,,,,,,,,,132.394,0.606,,
118,,iti,,html-keyboard-response,118,195836,0.0-1.0-153.0,0,0,10,,,,,,37.0,,1.0,,,,,,,,,,,,,,,,,,,,,,,,,,133.0,1.5,,
119,,size_choice,,html-keyboard-response,119,196376,0.0-1.0-155.0,0,0,10,,539.0,,,51.0,38.0,38.0,1.0,1000.0,S-L,0.0,S,L,1.0,3.0,die,mailbox,die7,mailbox2,106.0,41.0,/static/Size_judgement/Stimuli/Size_stims/S/die/die4.jpg,/static/Size_judgement/Stimuli/Size_stims/L/mailbox/mailbox2.jpg,0.0,mailbox,die,L,S,3.0,1.0,mailbox2,die7,1.0,134.5,0.539,0.0,
120,,size_choice_confirmation,,html-keyboard-response,120,197342,0.0-1.0-156.0-0.0,0,0,10,,,,,,38.0,,1.0,,,,,,,,,,,,,,,,,,,,,,,,,,135.039,0.961,,
121,,iti,,html-keyboard-response,121,198345,0.0-1.0-157.0,0,0,10,,,,,,38.0,,1.0,,,,,,,,,,,,,,,,,,,,,,,,,,136.0,1.0,,
122,,size_choice,,html-keyboard-response,122,198992,0.0-1.0-159.0,0,0,10,,646.0,,,50.0,39.0,39.0,1.0,1500.0,M-XL,1.0,XL,M,4.0,2.0,crane,ketchup,crane6,ketchup6,165.0,95.0,/static/Size_judgement/Stimuli/Size_stims/XL/crane/crane2.jpg,/static/Size_judgement/Stimuli/Size_stims/M/ketchup/ketchup1.jpg,1.0,crane,ketchup,XL,M,4.0,2.0,crane6,ketchup6,1.0,137.0,0.646,0.0,
123,,size_choice_confirmation,,html-keyboard-response,123,199849,0.0-1.0-160.0-0.0,0,0,10,,,,,,39.0,,1.0,,,,,,,,,,,,,,,,,,,,,,,,,,137.646,0.854,,
124,,iti,,html-keyboard-response,124,201353,0.0-1.0-161.0,0,0,10,,,,,,39.0,,1.0,,,,,,,,,,,,,,,,,,,,,,,,,,138.5,1.5,,
125,,size_choice,,html-keyboard-response,125,202007,0.0-1.0-163.0,0,0,10,,653.0,,,51.0,40.0,40.0,1.0,500.0,XL-XL,,XL,XL,4.0,4.0,dumptruck,car,dumptruck1,car2,170.0,151.0,/static/Size_judgement/Stimuli/Size_stims/XL/dumptruck/dumptruck9.jpg,/static/Size_judgement/Stimuli/Size_stims/XL/car/car3.jpg,0.0,car,dumptruck,XL,XL,4.0,4.0,car2,dumptruck1,,140.0,0.653,0.0,
126,,size_choice_confirmation,,html-keyboard-response,126,202858,0.0-1.0-164.0-0.0,0,0,10,,,,,,40.0,,1.0,,,,,,,,,,,,,,,,,,,,,,,,,,140.653,0.847,,
127,,iti,,html-keyboard-response,127,203359,0.0-1.0-165.0,0,0,10,,,,,,40.0,,1.0,,,,,,,,,,,,,,,,,,,,,,,,,,141.5,0.5,,
128,,size_choice,,html-keyboard-response,128,204652,0.0-1.0-167.0,0,0,10,,1293.0,,,51.0,41.0,41.0,1.0,1000.0,M-L,0.0,M,L,2.0,3.0,ketchup,deskchair,ketchup8,deskchair6,97.0,15.0,/static/Size_judgement/Stimuli/Size_stims/M/ketchup/ketchup5.jpg,/static/Size_judgement/Stimuli/Size_stims/L/deskchair/deskchair5.jpg,0.0,deskchair,ketchup,L,M,3.0,2.0,deskchair6,ketchup8,1.0,142.0,1.293,0.0,
129,,size_choice_confirmation,,html-keyboard-response,129,204861,0.0-1.0-168.0-0.0,0,0,10,,,,,,41.0,,1.0,,,,,,,,,,,,,,,,,,,,,,,,,,143.293,0.207,,
130,,iti,,html-keyboard-response,130,205867,0.0-1.0-169.0,0,0,10,,,,,,41.0,,1.0,,,,,,,,,,,,,,,,,,,,,,,,,,143.5,1.0,,
131,,size_choice,,html-keyboard-response,131,206557,0.0-1.0-171.0,0,0,10,,690.0,,,50.0,42.0,42.0,1.0,1000.0,S-XL,1.0,XL,S,4.0,1.0,car,teabag,car4,teabag10,153.0,139.0,/static/Size_judgement/Stimuli/Size_stims/XL/car/car6.jpg,/static/Size_judgement/Stimuli/Size_stims/S/teabag/teabag4.jpg,1.0,car,teabag,XL,S,4.0,1.0,car4,teabag10,1.0,144.5,0.69,0.0,
132,,size_choice_confirmation,,html-keyboard-response,132,207371,0.0-1.0-172.0-0.0,0,0,10,,,,,,42.0,,1.0,,,,,,,,,,,,,,,,,,,,,,,,,,145.19,0.81,,
133,,iti,,html-keyboard-response,133,208374,0.0-1.0-173.0,0,0,10,,,,,,42.0,,1.0,,,,,,,,,,,,,,,,,,,,,,,,,,146.0,1.0,,
134,,size_choice,,html-keyboard-response,134,209519,0.0-1.0-175.0,0,0,10,,1144.0,,,51.0,43.0,43.0,1.0,1000.0,M-M,,M,M,2.0,2.0,hairdryer,coffeemaker,hairdryer10,coffeemaker1,79.0,60.0,/static/Size_judgement/Stimuli/Size_stims/M/hairdryer/hairdryer6.jpg,/static/Size_judgement/Stimuli/Size_stims/M/coffeemaker/coffeemaker14.jpg,0.0,coffeemaker,hairdryer,M,M,2.0,2.0,coffeemaker1,hairdryer10,,147.0,1.144,0.0,
135,,size_choice_confirmation,,html-keyboard-response,135,209878,0.0-1.0-176.0-0.0,0,0,10,,,,,,43.0,,1.0,,,,,,,,,,,,,,,,,,,,,,,,,,148.144,0.356,,
136,,iti,,html-keyboard-response,136,210881,0.0-1.0-177.0,0,0,10,,,,,,43.0,,1.0,,,,,,,,,,,,,,,,,,,,,,,,,,148.5,1.0,,
137,,size_choice,,html-keyboard-response,137,211552,0.0-1.0-179.0,0,0,10,,670.0,,,50.0,44.0,44.0,1.0,1000.0,S-L,1.0,L,S,3.0,1.0,garbagecan,thread,garbagecan2,thread9,31.0,148.0,/static/Size_judgement/Stimuli/Size_stims/L/garbagecan/garbagecan5.jpg,/static/Size_judgement/Stimuli/Size_stims/S/thread/thread8.jpg,1.0,garbagecan,thread,L,S,3.0,1.0,garbagecan2,thread9,1.0,149.5,0.67,0.0,
138,,size_choice_confirmation,,html-keyboard-response,138,212385,0.0-1.0-180.0-0.0,0,0,10,,,,,,44.0,,1.0,,,,,,,,,,,,,,,,,,,,,,,,,,150.17,0.83,,
139,,iti,,html-keyboard-response,139,213388,0.0-1.0-181.0,0,0,10,,,,,,44.0,,1.0,,,,,,,,,,,,,,,,,,,,,,,,,,151.0,1.0,,
140,,size_choice,,html-keyboard-response,140,213955,0.0-1.0-183.0,0,0,10,,566.0,,,51.0,45.0,45.0,1.0,500.0,M-XL,0.0,M,XL,2.0,4.0,basketball,van,basketball7,van7,56.0,196.0,/static/Size_judgement/Stimuli/Size_stims/M/basketball/basketball6.jpg,/static/Size_judgement/Stimuli/Size_stims/XL/van/van1.jpg,0.0,van,basketball,XL,M,4.0,2.0,van7,basketball7,1.0,152.0,0.566,0.0,
141,,size_choice_confirmation,,html-keyboard-response,141,214892,0.0-1.0-184.0-0.0,0,0,10,,,,,,45.0,,1.0,,,,,,,,,,,,,,,,,,,,,,,,,,152.566,0.934,,
142,,iti,,html-keyboard-response,142,215394,0.0-1.0-185.0,0,0,10,,,,,,45.0,,1.0,,,,,,,,,,,,,,,,,,,,,,,,,,153.5,0.5,,
143,,size_choice,,html-keyboard-response,143,216021,0.0-1.0-187.0,0,0,10,,626.0,,,50.0,46.0,46.0,1.0,3000.0,S-L,1.0,L,S,3.0,1.0,dishwasher,teabag,dishwasher6,teabag1,25.0,130.0,/static/Size_judgement/Stimuli/Size_stims/L/dishwasher/dishwasher6.jpg,/static/Size_judgement/Stimuli/Size_stims/S/teabag/teabag9.jpg,1.0,dishwasher,teabag,L,S,3.0,1.0,dishwasher6,teabag1,1.0,154.0,0.626,0.0,
144,,size_choice_confirmation,,html-keyboard-response,144,216898,0.0-1.0-188.0-0.0,0,0,10,,,,,,46.0,,1.0,,,,,,,,,,,,,,,,,,,,,,,,,,154.626,0.874,,
145,,iti,,html-keyboard-response,145,219901,0.0-1.0-189.0,0,0,10,,,,,,46.0,,1.0,,,,,,,,,,,,,,,,,,,,,,,,,,155.5,3.0,,
146,,size_choice,,html-keyboard-response,146,220622,0.0-1.0-191.0,0,0,10,,719.0,,,50.0,47.0,47.0,1.0,2000.0,L-XL,1.0,XL,L,4.0,3.0,tractor,deskchair,tractor6,deskchair5,185.0,14.0,/static/Size_judgement/Stimuli/Size_stims/XL/tractor/tractor3.jpg,/static/Size_judgement/Stimuli/Size_stims/L/deskchair/deskchair7.jpg,1.0,tractor,deskchair,XL,L,4.0,3.0,tractor6,deskchair5,1.0,158.5,0.719,0.0,
147,,size_choice_confirmation,,html-keyboard-response,147,221405,0.0-1.0-192.0-0.0,0,0,10,,,,,,47.0,,1.0,,,,,,,,,,,,,,,,,,,,,,,,,,159.219,0.781,,
148,,iti,,html-keyboard-response,148,223411,0.0-1.0-193.0,0,0,10,,,,,,47.0,,1.0,,,,,,,,,,,,,,,,,,,,,,,,,,160.0,2.0,,
149,,size_choice,,html-keyboard-response,149,224400,0.0-1.0-195.0,0,0,10,,987.0,,,51.0,48.0,48.0,1.0,500.0,M-L,0.0,M,L,2.0,3.0,hairdryer,cooler,hairdryer6,cooler3,75.0,2.0,/static/Size_judgement/Stimuli/Size_stims/M/hairdryer/hairdryer8.jpg,/static/Size_judgement/Stimuli/Size_stims/L/cooler/cooler2.jpg,0.0,cooler,hairdryer,L,M,3.0,2.0,cooler3,hairdryer6,1.0,162.0,0.987,0.0,
150,,size_choice_confirmation,,html-keyboard-response,150,224915,0.0-1.0-196.0-0.0,0,0,10,,,,,,48.0,,1.0,,,,,,,,,,,,,,,,,,,,,,,,,,162.987,0.513,,
151,,iti,,html-keyboard-response,151,225418,0.0-1.0-197.0,0,0,10,,,,,,48.0,,1.0,,,,,,,,,,,,,,,,,,,,,,,,,,163.5,0.5,,
152,,size_choice,,html-keyboard-response,152,226138,0.0-1.0-199.0,0,0,10,,718.0,,,50.0,49.0,49.0,1.0,1500.0,S-L,1.0,L,S,3.0,1.0,cooler,thread,cooler7,thread7,6.0,146.0,/static/Size_judgement/Stimuli/Size_stims/L/cooler/cooler4.jpg,/static/Size_judgement/Stimuli/Size_stims/S/thread/thread3.jpg,1.0,cooler,thread,L,S,3.0,1.0,cooler7,thread7,1.0,164.0,0.718,0.0,
153,,size_choice_confirmation,,html-keyboard-response,153,226925,0.0-1.0-200.0-0.0,0,0,10,,,,,,49.0,,1.0,,,,,,,,,,,,,,,,,,,,,,,,,,164.718,0.782,,
154,,iti,,html-keyboard-response,154,228426,0.0-1.0-201.0,0,0,10,,,,,,49.0,,1.0,,,,,,,,,,,,,,,,,,,,,,,,,,165.5,1.5,,
155,,size_choice,,html-keyboard-response,155,229518,0.0-1.0-203.0,0,0,10,,1092.0,,,50.0,50.0,50.0,1.0,1500.0,S-S,,S,S,1.0,1.0,paperclip,screws,paperclip1,screws10,110.0,129.0,/static/Size_judgement/Stimuli/Size_stims/S/paperclip/paperclip9.jpg,/static/Size_judgement/Stimuli/Size_stims/S/screws/screws9.jpg,1.0,paperclip,screws,S,S,1.0,1.0,paperclip1,screws10,,167.0,1.092,0.0,
156,,size_choice_confirmation,,html-keyboard-response,156,229930,0.0-1.0-204.0-0.0,0,0,10,,,,,,50.0,,1.0,,,,,,,,,,,,,,,,,,,,,,,,,,168.092,0.408,,
157,,iti,,html-keyboard-response,157,231433,0.0-1.0-205.0,0,0,10,,,,,,50.0,,1.0,,,,,,,,,,,,,,,,,,,,,,,,,,168.5,1.5,,
158,,size_choice,,html-keyboard-response,158,232253,0.0-1.0-207.0,0,0,10,,819.0,,,51.0,51.0,51.0,1.0,500.0,L-XL,0.0,L,XL,3.0,4.0,dishwasher,dumptruck,dishwasher3,dumptruck3,22.0,172.0,/static/Size_judgement/Stimuli/Size_stims/L/dishwasher/dishwasher8.jpg,/static/Size_judgement/Stimuli/Size_stims/XL/dumptruck/dumptruck10.jpg,0.0,dumptruck,dishwasher,XL,L,4.0,3.0,dumptruck3,dishwasher3,1.0,170.0,0.819,0.0,
159,,size_choice_confirmation,,html-keyboard-response,159,232937,0.0-1.0-208.0-0.0,0,0,10,,,,,,51.0,,1.0,,,,,,,,,,,,,,,,,,,,,,,,,,170.819,0.681,,
160,,iti,,html-keyboard-response,160,233438,0.0-1.0-209.0,0,0,10,,,,,,51.0,,1.0,,,,,,,,,,,,,,,,,,,,,,,,,,171.5,0.5,,
161,,size_choice,,html-keyboard-response,161,234770,0.0-1.0-211.0,0,0,10,,1331.0,,,51.0,52.0,52.0,1.0,1000.0,S-S,,S,S,1.0,1.0,die,thread,die3,thread6,102.0,145.0,/static/Size_judgement/Stimuli/Size_stims/S/die/die10.jpg,/static/Size_judgement/Stimuli/Size_stims/S/thread/thread2.jpg,0.0,thread,die,S,S,1.0,1.0,thread6,die3,,172.0,1.331,0.0,
162,,size_choice_confirmation,,html-keyboard-response,162,234942,0.0-1.0-212.0-0.0,0,0,10,,,,,,52.0,,1.0,,,,,,,,,,,,,,,,,,,,,,,,,,173.331,0.169,,
163,,iti,,html-keyboard-response,163,235946,0.0-1.0-213.0,0,0,10,,,,,,52.0,,1.0,,,,,,,,,,,,,,,,,,,,,,,,,,173.5,1.0,,
164,,size_choice,,html-keyboard-response,164,236664,0.0-1.0-215.0,0,0,10,,717.0,,,50.0,53.0,53.0,1.0,3500.0,M-XL,1.0,XL,M,4.0,2.0,crane,coffeemaker,crane10,coffeemaker2,169.0,61.0,/static/Size_judgement/Stimuli/Size_stims/XL/crane/crane9.jpg,/static/Size_judgement/Stimuli/Size_stims/M/coffeemaker/coffeemaker12.jpg,1.0,crane,coffeemaker,XL,M,4.0,2.0,crane10,coffeemaker2,1.0,174.5,0.717,0.0,
165,,size_choice_confirmation,,html-keyboard-response,165,237450,0.0-1.0-216.0-0.0,0,0,10,,,,,,53.0,,1.0,,,,,,,,,,,,,,,,,,,,,,,,,,175.217,0.783,,
166,,iti,,html-keyboard-response,166,240955,0.0-1.0-217.0,0,0,10,,,,,,53.0,,1.0,,,,,,,,,,,,,,,,,,,,,,,,,,176.0,3.5,,
167,,size_choice,,html-keyboard-response,167,241705,0.0-1.0-219.0,0,0,10,,748.0,,,51.0,54.0,54.0,1.0,1000.0,S-XL,0.0,S,XL,1.0,4.0,teabag,dumptruck,teabag7,dumptruck8,136.0,177.0,/static/Size_judgement/Stimuli/Size_stims/S/teabag/teabag10.jpg,/static/Size_judgement/Stimuli/Size_stims/XL/dumptruck/dumptruck7.jpg,0.0,dumptruck,teabag,XL,S,4.0,1.0,dumptruck8,teabag7,1.0,179.5,0.748,0.0,
168,,size_choice_confirmation,,html-keyboard-response,168,242462,0.0-1.0-220.0-0.0,0,0,10,,,,,,54.0,,1.0,,,,,,,,,,,,,,,,,,,,,,,,,,180.248,0.752,,
169,,iti,,html-keyboard-response,169,243465,0.0-1.0-221.0,0,0,10,,,,,,54.0,,1.0,,,,,,,,,,,,,,,,,,,,,,,,,,181.0,1.0,,
170,,size_choice,,html-keyboard-response,170,244121,0.0-1.0-223.0,0,0,10,,655.0,,,51.0,55.0,55.0,1.0,2000.0,M-L,0.0,M,L,2.0,3.0,handsaw,cooler,handsaw6,cooler5,85.0,4.0,/static/Size_judgement/Stimuli/Size_stims/M/handsaw/handsaw4.jpg,/static/Size_judgement/Stimuli/Size_stims/L/cooler/cooler10.jpg,0.0,cooler,handsaw,L,M,3.0,2.0,cooler5,handsaw6,1.0,182.0,0.655,0.0,
171,,size_choice_confirmation,,html-keyboard-response,171,244969,0.0-1.0-224.0-0.0,0,0,10,,,,,,55.0,,1.0,,,,,,,,,,,,,,,,,,,,,,,,,,182.655,0.845,,
172,,iti,,html-keyboard-response,172,246974,0.0-1.0-225.0,0,0,10,,,,,,55.0,,1.0,,,,,,,,,,,,,,,,,,,,,,,,,,183.5,2.0,,
173,,size_choice,,html-keyboard-response,173,247659,0.0-1.0-227.0,0,0,10,,683.0,,,51.0,56.0,56.0,1.0,2000.0,M-L,0.0,M,L,2.0,3.0,ketchup,mailbox,ketchup2,mailbox9,91.0,48.0,/static/Size_judgement/Stimuli/Size_stims/M/ketchup/ketchup9.jpg,/static/Size_judgement/Stimuli/Size_stims/L/mailbox/mailbox9.jpg,0.0,mailbox,ketchup,L,M,3.0,2.0,mailbox9,ketchup2,1.0,185.5,0.683,0.0,
174,,size_choice_confirmation,,html-keyboard-response,174,248479,0.0-1.0-228.0-0.0,0,0,10,,,,,,56.0,,1.0,,,,,,,,,,,,,,,,,,,,,,,,,,186.183,0.817,,
175,,iti,,html-keyboard-response,175,250484,0.0-1.0-229.0,0,0,10,,,,,,56.0,,1.0,,,,,,,,,,,,,,,,,,,,,,,,,,187.0,2.0,,
176,,size_choice,,html-keyboard-response,176,251112,0.0-1.0-231.0,0,0,10,,627.0,,,50.0,57.0,57.0,1.0,1000.0,S-XL,1.0,XL,S,4.0,1.0,dumptruck,teabag,dumptruck7,teabag5,176.0,134.0,/static/Size_judgement/Stimuli/Size_stims/XL/dumptruck/dumptruck6.jpg,/static/Size_judgement/Stimuli/Size_stims/S/teabag/teabag2.jpg,1.0,dumptruck,teabag,XL,S,4.0,1.0,dumptruck7,teabag5,1.0,189.0,0.627,0.0,
177,,size_choice_confirmation,,html-keyboard-response,177,251988,0.0-1.0-232.0-0.0,0,0,10,,,,,,57.0,,1.0,,,,,,,,,,,,,,,,,,,,,,,,,,189.627,0.873,,
178,,iti,,html-keyboard-response,178,252991,0.0-1.0-233.0,0,0,10,,,,,,57.0,,1.0,,,,,,,,,,,,,,,,,,,,,,,,,,190.5,1.0,,
179,,size_choice,,html-keyboard-response,179,253619,0.0-1.0-235.0,0,0,10,,627.0,,,50.0,58.0,58.0,1.0,5000.0,S-XL,1.0,XL,S,4.0,1.0,van,teabag,van4,teabag3,193.0,132.0,/static/Size_judgement/Stimuli/Size_stims/XL/van/van7.jpg,/static/Size_judgement/Stimuli/Size_stims/S/teabag/teabag1.jpg,1.0,van,teabag,XL,S,4.0,1.0,van4,teabag3,1.0,191.5,0.627,0.0,
180,,size_choice_confirmation,,html-keyboard-response,180,254494,0.0-1.0-236.0-0.0,0,0,10,,,,,,58.0,,1.0,,,,,,,,,,,,,,,,,,,,,,,,,,192.127,0.873,,
181,,iti,,html-keyboard-response,181,259498,0.0-1.0-237.0,0,0,10,,,,,,58.0,,1.0,,,,,,,,,,,,,,,,,,,,,,,,,,193.0,5.0,,
182,,size_choice,,html-keyboard-response,182,260022,0.0-1.0-239.0,0,0,10,,524.0,,,51.0,59.0,59.0,1.0,500.0,S-L,0.0,S,L,1.0,3.0,paperclip,deskchair,paperclip4,deskchair3,113.0,12.0,/static/Size_judgement/Stimuli/Size_stims/S/paperclip/paperclip3.jpg,/static/Size_judgement/Stimuli/Size_stims/L/deskchair/deskchair10.jpg,0.0,deskchair,paperclip,L,S,3.0,1.0,deskchair3,paperclip4,1.0,198.0,0.524,0.0,
183,,size_choice_confirmation,,html-keyboard-response,183,261002,0.0-1.0-240.0-0.0,0,0,10,,,,,,59.0,,1.0,,,,,,,,,,,,,,,,,,,,,,,,,,198.524,0.976,,
184,,iti,,html-keyboard-response,184,261503,0.0-1.0-241.0,0,0,10,,,,,,59.0,,1.0,,,,,,,,,,,,,,,,,,,,,,,,,,199.5,0.5,,
185,,size_choice,,html-keyboard-response,185,262809,0.0-1.0-243.0,0,0,10,,1305.0,,,51.0,60.0,60.0,1.0,1000.0,L-L,,L,L,3.0,3.0,deskchair,cooler,deskchair8,cooler2,17.0,1.0,/static/Size_judgement/Stimuli/Size_stims/L/deskchair/deskchair1.jpg,/static/Size_judgement/Stimuli/Size_stims/L/cooler/cooler9.jpg,0.0,cooler,deskchair,L,L,3.0,3.0,cooler2,deskchair8,,200.0,1.305,0.0,
186,,size_choice_confirmation,,html-keyboard-response,186,263006,0.0-1.0-244.0-0.0,0,0,10,,,,,,60.0,,1.0,,,,,,,,,,,,,,,,,,,,,,,,,,201.305,0.195,,
187,,iti,,html-keyboard-response,187,264009,0.0-1.0-245.0,0,0,10,,,,,,60.0,,1.0,,,,,,,,,,,,,,,,,,,,,,,,,,201.5,1.0,,
188,,size_choice,,html-keyboard-response,188,264526,0.0-1.0-247.0,0,0,10,,516.0,,,50.0,61.0,61.0,1.0,1500.0,S-XL,1.0,XL,S,4.0,1.0,crane,screws,crane3,screws7,162.0,126.0,/static/Size_judgement/Stimuli/Size_stims/XL/crane/crane4.jpg,/static/Size_judgement/Stimuli/Size_stims/S/screws/screws1.jpg,1.0,crane,screws,XL,S,4.0,1.0,crane3,screws7,1.0,202.5,0.516,0.0,
189,,size_choice_confirmation,,html-keyboard-response,189,265513,0.0-1.0-248.0-0.0,0,0,10,,,,,,61.0,,1.0,,,,,,,,,,,,,,,,,,,,,,,,,,203.016,0.984,,
190,,iti,,html-keyboard-response,190,267018,0.0-1.0-249.0,0,0,10,,,,,,61.0,,1.0,,,,,,,,,,,,,,,,,,,,,,,,,,204.0,1.5,,
191,,size_choice,,html-keyboard-response,191,267776,0.0-1.0-251.0,0,0,10,,756.0,,,50.0,62.0,62.0,1.0,500.0,S-L,1.0,L,S,3.0,1.0,garbagecan,teabag,garbagecan3,teabag8,32.0,137.0,/static/Size_judgement/Stimuli/Size_stims/L/garbagecan/garbagecan7.jpg,/static/Size_judgement/Stimuli/Size_stims/S/teabag/teabag7.jpg,1.0,garbagecan,teabag,L,S,3.0,1.0,garbagecan3,teabag8,1.0,205.5,0.756,0.0,
192,,size_choice_confirmation,,html-keyboard-response,192,268522,0.0-1.0-252.0-0.0,0,0,10,,,,,,62.0,,1.0,,,,,,,,,,,,,,,,,,,,,,,,,,206.256,0.744,,
193,,iti,,html-keyboard-response,193,269023,0.0-1.0-253.0,0,0,10,,,,,,62.0,,1.0,,,,,,,,,,,,,,,,,,,,,,,,,,207.0,0.5,,
194,,size_choice,,html-keyboard-response,194,269831,0.0-1.0-255.0,0,0,10,,807.0,,,50.0,63.0,63.0,1.0,5500.0,M-XL,1.0,XL,M,4.0,2.0,tractor,coffeemaker,tractor2,coffeemaker7,181.0,66.0,/static/Size_judgement/Stimuli/Size_stims/XL/tractor/tractor7.jpg,/static/Size_judgement/Stimuli/Size_stims/M/coffeemaker/coffeemaker9.jpg,1.0,tractor,coffeemaker,XL,M,4.0,2.0,tractor2,coffeemaker7,1.0,207.5,0.807,0.0,
195,,size_choice_confirmation,,html-keyboard-response,195,270525,0.0-1.0-256.0-0.0,0,0,10,,,,,,63.0,,1.0,,,,,,,,,,,,,,,,,,,,,,,,,,208.307,0.693,,
196,,iti,,html-keyboard-response,196,276031,0.0-1.0-257.0,0,0,10,,,,,,63.0,,1.0,,,,,,,,,,,,,,,,,,,,,,,,,,209.0,5.5,,
197,,size_choice,,html-keyboard-response,197,276602,0.0-1.0-259.0,0,0,10,,569.0,,,50.0,64.0,64.0,1.0,1500.0,L-L,,L,L,3.0,3.0,dishwasher,garbagecan,dishwasher5,garbagecan1,24.0,30.0,/static/Size_judgement/Stimuli/Size_stims/L/dishwasher/dishwasher4.jpg,/static/Size_judgement/Stimuli/Size_stims/L/garbagecan/garbagecan4.jpg,1.0,dishwasher,garbagecan,L,L,3.0,3.0,dishwasher5,garbagecan1,,214.5,0.569,0.0,
198,,size_choice_confirmation,,html-keyboard-response,198,277537,0.0-1.0-260.0-0.0,0,0,10,,,,,,64.0,,1.0,,,,,,,,,,,,,,,,,,,,,,,,,,215.069,0.931,,
199,,iti,,html-keyboard-response,199,279042,0.0-1.0-261.0,0,0,10,,,,,,64.0,,1.0,,,,,,,,,,,,,,,,,,,,,,,,,,216.0,1.5,,
200,,size_choice,,html-keyboard-response,200,279616,0.0-1.0-263.0,0,0,10,,573.0,,,51.0,65.0,65.0,1.0,1500.0,S-XL,0.0,S,XL,1.0,4.0,thread,car,thread5,car1,144.0,150.0,/static/Size_judgement/Stimuli/Size_stims/S/thread/thread1.jpg,/static/Size_judgement/Stimuli/Size_stims/XL/car/car2.jpg,0.0,car,thread,XL,S,4.0,1.0,car1,thread5,1.0,217.5,0.573,0.0,
201,,size_choice_confirmation,,html-keyboard-response,201,280549,0.0-1.0-264.0-0.0,0,0,10,,,,,,65.0,,1.0,,,,,,,,,,,,,,,,,,,,,,,,,,218.073,0.927,,
202,,iti,,html-keyboard-response,202,282050,0.0-1.0-265.0,0,0,10,,,,,,65.0,,1.0,,,,,,,,,,,,,,,,,,,,,,,,,,219.0,1.5,,
203,,size_choice,,html-keyboard-response,203,282716,0.0-1.0-267.0,0,0,10,,665.0,,,50.0,66.0,66.0,1.0,6000.0,M-L,1.0,L,M,3.0,2.0,garbagecan,basketball,garbagecan5,basketball1,34.0,50.0,/static/Size_judgement/Stimuli/Size_stims/L/garbagecan/garbagecan3.jpg,/static/Size_judgement/Stimuli/Size_stims/M/basketball/basketball9.jpg,1.0,garbagecan,basketball,L,M,3.0,2.0,garbagecan5,basketball1,1.0,220.5,0.665,0.0,
204,,size_choice_confirmation,,html-keyboard-response,204,283556,0.0-1.0-268.0-0.0,0,0,10,,,,,,66.0,,1.0,,,,,,,,,,,,,,,,,,,,,,,,,,221.165,0.835,,
205,,iti,,html-keyboard-response,205,289562,0.0-1.0-269.0,0,0,10,,,,,,66.0,,1.0,,,,,,,,,,,,,,,,,,,,,,,,,,222.0,6.0,,
206,,size_choice,,html-keyboard-response,206,290259,0.0-1.0-271.0,0,0,10,,695.0,,,50.0,67.0,67.0,1.0,6000.0,S-L,1.0,L,S,3.0,1.0,deskchair,thread,deskchair10,thread2,19.0,141.0,/static/Size_judgement/Stimuli/Size_stims/L/deskchair/deskchair2.jpg,/static/Size_judgement/Stimuli/Size_stims/S/thread/thread6.jpg,1.0,deskchair,thread,L,S,3.0,1.0,deskchair10,thread2,1.0,228.0,0.695,0.0,
207,,size_choice_confirmation,,html-keyboard-response,207,291066,0.0-1.0-272.0-0.0,0,0,10,,,,,,67.0,,1.0,,,,,,,,,,,,,,,,,,,,,,,,,,228.695,0.805,,
208,,iti,,html-keyboard-response,208,297071,0.0-1.0-273.0,0,0,10,,,,,,67.0,,1.0,,,,,,,,,,,,,,,,,,,,,,,,,,229.5,6.0,,
209,,size_choice,,html-keyboard-response,209,298106,0.0-1.0-275.0,0,0,10,,1034.0,,,51.0,68.0,68.0,1.0,1500.0,L-L,,L,L,3.0,3.0,mailbox,garbagecan,mailbox5,garbagecan8,44.0,37.0,/static/Size_judgement/Stimuli/Size_stims/L/mailbox/mailbox4.jpg,/static/Size_judgement/Stimuli/Size_stims/L/garbagecan/garbagecan13.jpg,0.0,garbagecan,mailbox,L,L,3.0,3.0,garbagecan8,mailbox5,,235.5,1.034,0.0,
210,,size_choice_confirmation,,html-keyboard-response,210,298577,0.0-1.0-276.0-0.0,0,0,10,,,,,,68.0,,1.0,,,,,,,,,,,,,,,,,,,,,,,,,,236.534,0.466,,
211,,iti,,html-keyboard-response,211,300079,0.0-1.0-277.0,0,0,10,,,,,,68.0,,1.0,,,,,,,,,,,,,,,,,,,,,,,,,,237.0,1.5,,
212,,size_choice,,html-keyboard-response,212,301228,0.0-1.0-279.0,0,0,10,,1148.0,,,50.0,69.0,69.0,1.0,1500.0,XL-XL,,XL,XL,4.0,4.0,dumptruck,car,dumptruck2,car6,171.0,155.0,/static/Size_judgement/Stimuli/Size_stims/XL/dumptruck/dumptruck8.jpg,/static/Size_judgement/Stimuli/Size_stims/XL/car/car12.jpg,1.0,dumptruck,car,XL,XL,4.0,4.0,dumptruck2,car6,,238.5,1.148,0.0,
213,,size_choice_confirmation,,html-keyboard-response,213,301586,0.0-1.0-280.0-0.0,0,0,10,,,,,,69.0,,1.0,,,,,,,,,,,,,,,,,,,,,,,,,,239.648,0.352,,
214,,iti,,html-keyboard-response,214,303087,0.0-1.0-281.0,0,0,10,,,,,,69.0,,1.0,,,,,,,,,,,,,,,,,,,,,,,,,,240.0,1.5,,
215,,size_choice,,html-keyboard-response,215,304006,0.0-1.0-283.0,0,0,10,,918.0,,,50.0,70.0,70.0,1.0,1000.0,M-L,1.0,L,M,3.0,2.0,mailbox,coffeemaker,mailbox10,coffeemaker10,49.0,69.0,/static/Size_judgement/Stimuli/Size_stims/L/mailbox/mailbox8.jpg,/static/Size_judgement/Stimuli/Size_stims/M/coffeemaker/coffeemaker18.jpg,1.0,mailbox,coffeemaker,L,M,3.0,2.0,mailbox10,coffeemaker10,1.0,241.5,0.918,0.0,
216,,size_choice_confirmation,,html-keyboard-response,216,304593,0.0-1.0-284.0-0.0,0,0,10,,,,,,70.0,,1.0,,,,,,,,,,,,,,,,,,,,,,,,,,242.418,0.582,,
217,,iti,,html-keyboard-response,217,305596,0.0-1.0-285.0,0,0,10,,,,,,70.0,,1.0,,,,,,,,,,,,,,,,,,,,,,,,,,243.0,1.0,,
218,,size_choice,,html-keyboard-response,218,306604,0.0-1.0-287.0,0,0,10,,1006.0,,,50.0,71.0,71.0,1.0,1500.0,S-M,1.0,M,S,2.0,1.0,basketball,screws,basketball6,screws9,55.0,128.0,/static/Size_judgement/Stimuli/Size_stims/M/basketball/basketball2.jpg,/static/Size_judgement/Stimuli/Size_stims/S/screws/screws8.jpg,1.0,basketball,screws,M,S,2.0,1.0,basketball6,screws9,1.0,244.0,1.006,0.0,
219,,size_choice_confirmation,,html-keyboard-response,219,307100,0.0-1.0-288.0-0.0,0,0,10,,,,,,71.0,,1.0,,,,,,,,,,,,,,,,,,,,,,,,,,245.006,0.494,,
220,,iti,,html-keyboard-response,220,308602,0.0-1.0-289.0,0,0,10,,,,,,71.0,,1.0,,,,,,,,,,,,,,,,,,,,,,,,,,245.5,1.5,,
221,,size_choice,,html-keyboard-response,221,309308,0.0-1.0-291.0,0,0,10,,705.0,,,50.0,72.0,72.0,1.0,2000.0,S-L,1.0,L,S,3.0,1.0,dishwasher,paperclip,dishwasher10,paperclip9,29.0,118.0,/static/Size_judgement/Stimuli/Size_stims/L/dishwasher/dishwasher1.jpg,/static/Size_judgement/Stimuli/Size_stims/S/paperclip/paperclip4.jpg,1.0,dishwasher,paperclip,L,S,3.0,1.0,dishwasher10,paperclip9,1.0,247.0,0.705,0.0,
222,,size_choice_confirmation,,html-keyboard-response,222,310106,0.0-1.0-292.0-0.0,0,0,10,,,,,,72.0,,1.0,,,,,,,,,,,,,,,,,,,,,,,,,,247.705,0.795,,
223,,iti,,html-keyboard-response,223,312111,0.0-1.0-293.0,0,0,10,,,,,,72.0,,1.0,,,,,,,,,,,,,,,,,,,,,,,,,,248.5,2.0,,
224,,size_choice,,html-keyboard-response,224,313004,0.0-1.0-295.0,0,0,10,,891.0,,,51.0,73.0,73.0,1.0,2000.0,S-L,0.0,S,L,1.0,3.0,paperclip,mailbox,paperclip2,mailbox7,111.0,46.0,/static/Size_judgement/Stimuli/Size_stims/S/paperclip/paperclip8.jpg,/static/Size_judgement/Stimuli/Size_stims/L/mailbox/mailbox7.jpg,0.0,mailbox,paperclip,L,S,3.0,1.0,mailbox7,paperclip2,1.0,250.5,0.891,0.0,
225,,size_choice_confirmation,,html-keyboard-response,225,313615,0.0-1.0-296.0-0.0,0,0,10,,,,,,73.0,,1.0,,,,,,,,,,,,,,,,,,,,,,,,,,251.391,0.609,,
226,,iti,,html-keyboard-response,226,315621,0.0-1.0-297.0,0,0,10,,,,,,73.0,,1.0,,,,,,,,,,,,,,,,,,,,,,,,,,252.0,2.0,,
227,,size_choice,,html-keyboard-response,227,316313,0.0-1.0-299.0,0,0,10,,691.0,,,51.0,74.0,74.0,1.0,1000.0,S-XL,0.0,S,XL,1.0,4.0,thread,dumptruck,thread8,dumptruck10,147.0,179.0,/static/Size_judgement/Stimuli/Size_stims/S/thread/thread10.jpg,/static/Size_judgement/Stimuli/Size_stims/XL/dumptruck/dumptruck4.jpg,0.0,dumptruck,thread,XL,S,4.0,1.0,dumptruck10,thread8,1.0,254.0,0.691,0.0,
228,,size_choice_confirmation,,html-keyboard-response,228,317124,0.0-1.0-300.0-0.0,0,0,10,,,,,,74.0,,1.0,,,,,,,,,,,,,,,,,,,,,,,,,,254.691,0.809,,
229,,iti,,html-keyboard-response,229,318127,0.0-1.0-301.0,0,0,10,,,,,,74.0,,1.0,,,,,,,,,,,,,,,,,,,,,,,,,,255.5,1.0,,
230,,size_choice,,html-keyboard-response,230,318796,0.0-1.0-303.0,0,0,10,,668.0,,,50.0,75.0,75.0,1.0,2500.0,M-L,1.0,L,M,3.0,2.0,dishwasher,ketchup,dishwasher1,ketchup4,20.0,93.0,/static/Size_judgement/Stimuli/Size_stims/L/dishwasher/dishwasher10.jpg,/static/Size_judgement/Stimuli/Size_stims/M/ketchup/ketchup2.jpg,1.0,dishwasher,ketchup,L,M,3.0,2.0,dishwasher1,ketchup4,1.0,256.5,0.668,0.0,
231,,size_choice_confirmation,,html-keyboard-response,231,319632,0.0-1.0-304.0-0.0,0,0,10,,,,,,75.0,,1.0,,,,,,,,,,,,,,,,,,,,,,,,,,257.168,0.832,,
232,,iti,,html-keyboard-response,232,322133,0.0-1.0-305.0,0,0,10,,,,,,75.0,,1.0,,,,,,,,,,,,,,,,,,,,,,,,,,258.0,2.5,,
233,,size_choice,,html-keyboard-response,233,322763,0.0-1.0-307.0,0,0,10,,629.0,,,50.0,76.0,76.0,1.0,1000.0,S-XL,1.0,XL,S,4.0,1.0,crane,die,crane7,die4,166.0,103.0,/static/Size_judgement/Stimuli/Size_stims/XL/crane/crane3.jpg,/static/Size_judgement/Stimuli/Size_stims/S/die/die2.jpg,1.0,crane,die,XL,S,4.0,1.0,crane7,die4,1.0,260.5,0.629,0.0,
234,,size_choice_confirmation,,html-keyboard-response,234,323637,0.0-1.0-308.0-0.0,0,0,10,,,,,,76.0,,1.0,,,,,,,,,,,,,,,,,,,,,,,,,,261.129,0.871,,
235,,iti,,html-keyboard-response,235,324640,0.0-1.0-309.0,0,0,10,,,,,,76.0,,1.0,,,,,,,,,,,,,,,,,,,,,,,,,,262.0,1.0,,
236,,size_choice,,html-keyboard-response,236,325232,0.0-1.0-311.0,0,0,10,,591.0,,,50.0,77.0,77.0,1.0,500.0,S-XL,1.0,XL,S,4.0,1.0,van,screws,van1,screws6,190.0,125.0,/static/Size_judgement/Stimuli/Size_stims/XL/van/van5.jpg,/static/Size_judgement/Stimuli/Size_stims/S/screws/screws3.jpg,1.0,van,screws,XL,S,4.0,1.0,van1,screws6,1.0,263.0,0.591,0.0,
237,,size_choice_confirmation,,html-keyboard-response,237,326143,0.0-1.0-312.0-0.0,0,0,10,,,,,,77.0,,1.0,,,,,,,,,,,,,,,,,,,,,,,,,,263.591,0.909,,
238,,iti,,html-keyboard-response,238,326645,0.0-1.0-313.0,0,0,10,,,,,,77.0,,1.0,,,,,,,,,,,,,,,,,,,,,,,,,,264.5,0.5,,
239,,size_choice,,html-keyboard-response,239,327255,0.0-1.0-315.0,0,0,10,,609.0,,,50.0,78.0,78.0,1.0,1000.0,S-XL,1.0,XL,S,4.0,1.0,tractor,die,tractor7,die2,186.0,101.0,/static/Size_judgement/Stimuli/Size_stims/XL/tractor/tractor2.jpg,/static/Size_judgement/Stimuli/Size_stims/S/die/die9.jpg,1.0,tractor,die,XL,S,4.0,1.0,tractor7,die2,1.0,265.0,0.609,0.0,
240,,size_choice_confirmation,,html-keyboard-response,240,328150,0.0-1.0-316.0-0.0,0,0,10,,,,,,78.0,,1.0,,,,,,,,,,,,,,,,,,,,,,,,,,265.609,0.891,,
241,,iti,,html-keyboard-response,241,329152,0.0-1.0-317.0,0,0,10,,,,,,78.0,,1.0,,,,,,,,,,,,,,,,,,,,,,,,,,266.5,1.0,,
242,,size_choice,,html-keyboard-response,242,329704,0.0-1.0-319.0,0,0,10,,551.0,,,50.0,79.0,79.0,1.0,4500.0,XL-XL,,XL,XL,4.0,4.0,van,tractor,van6,tractor9,195.0,188.0,/static/Size_judgement/Stimuli/Size_stims/XL/van/van2.jpg,/static/Size_judgement/Stimuli/Size_stims/XL/tractor/tractor9.jpg,1.0,van,tractor,XL,XL,4.0,4.0,van6,tractor9,,267.5,0.551,0.0,
243,,size_choice_confirmation,,html-keyboard-response,243,330656,0.0-1.0-320.0-0.0,0,0,10,,,,,,79.0,,1.0,,,,,,,,,,,,,,,,,,,,,,,,,,268.051,0.949,,
244,,iti,,html-keyboard-response,244,335158,0.0-1.0-321.0,0,0,10,,,,,,79.0,,1.0,,,,,,,,,,,,,,,,,,,,,,,,,,269.0,4.5,,
245,,size_choice,,html-keyboard-response,245,336075,0.0-1.0-323.0,0,0,10,,915.0,,,51.0,80.0,80.0,1.0,2000.0,M-L,0.0,M,L,2.0,3.0,ketchup,deskchair,ketchup3,deskchair7,92.0,16.0,/static/Size_judgement/Stimuli/Size_stims/M/ketchup/ketchup10.jpg,/static/Size_judgement/Stimuli/Size_stims/L/deskchair/deskchair4.jpg,0.0,deskchair,ketchup,L,M,3.0,2.0,deskchair7,ketchup3,1.0,273.5,0.915,0.0,
246,,size_choice_confirmation,,html-keyboard-response,246,336666,0.0-1.0-324.0-0.0,0,0,10,,,,,,80.0,,1.0,,,,,,,,,,,,,,,,,,,,,,,,,,274.415,0.585,,
247,,iti,,html-keyboard-response,247,338672,0.0-1.0-325.0,0,0,10,,,,,,80.0,,1.0,,,,,,,,,,,,,,,,,,,,,,,,,,275.0,2.0,,
248,,size_choice,,html-keyboard-response,248,339271,0.0-1.0-327.0,0,0,10,,599.0,,,50.0,81.0,81.0,1.0,1500.0,M-L,1.0,L,M,3.0,2.0,garbagecan,basketball,garbagecan4,basketball4,33.0,53.0,/static/Size_judgement/Stimuli/Size_stims/L/garbagecan/garbagecan6.jpg,/static/Size_judgement/Stimuli/Size_stims/M/basketball/basketball1.jpg,1.0,garbagecan,basketball,L,M,3.0,2.0,garbagecan4,basketball4,1.0,277.0,0.599,0.0,
249,,size_choice_confirmation,,html-keyboard-response,249,340177,0.0-1.0-328.0-0.0,0,0,10,,,,,,81.0,,1.0,,,,,,,,,,,,,,,,,,,,,,,,,,277.599,0.901,,
250,,iti,,html-keyboard-response,250,341680,0.0-1.0-329.0,0,0,10,,,,,,81.0,,1.0,,,,,,,,,,,,,,,,,,,,,,,,,,278.5,1.5,,
251,,size_choice,,html-keyboard-response,251,342484,0.0-1.0-331.0,0,0,10,,803.0,,,50.0,82.0,82.0,1.0,500.0,XL-XL,,XL,XL,4.0,4.0,van,tractor,van9,tractor1,198.0,180.0,/static/Size_judgement/Stimuli/Size_stims/XL/van/van9.jpg,/static/Size_judgement/Stimuli/Size_stims/XL/tractor/tractor6.jpg,1.0,van,tractor,XL,XL,4.0,4.0,van9,tractor1,,280.0,0.803,0.0,
252,,size_choice_confirmation,,html-keyboard-response,252,343184,0.0-1.0-332.0-0.0,0,0,10,,,,,,82.0,,1.0,,,,,,,,,,,,,,,,,,,,,,,,,,280.803,0.697,,
253,,iti,,html-keyboard-response,253,343685,0.0-1.0-333.0,0,0,10,,,,,,82.0,,1.0,,,,,,,,,,,,,,,,,,,,,,,,,,281.5,0.5,,
254,,size_choice,,html-keyboard-response,254,344556,0.0-1.0-335.0,0,0,10,,870.0,,,51.0,83.0,83.0,1.0,1500.0,S-M,0.0,S,M,1.0,2.0,teabag,coffeemaker,teabag2,coffeemaker3,131.0,62.0,/static/Size_judgement/Stimuli/Size_stims/S/teabag/teabag8.jpg,/static/Size_judgement/Stimuli/Size_stims/M/coffeemaker/coffeemaker13.jpg,0.0,coffeemaker,teabag,M,S,2.0,1.0,coffeemaker3,teabag2,1.0,282.0,0.87,0.0,
255,,size_choice_confirmation,,html-keyboard-response,255,345189,0.0-1.0-336.0-0.0,0,0,10,,,,,,83.0,,1.0,,,,,,,,,,,,,,,,,,,,,,,,,,282.87,0.63,,
256,,iti,,html-keyboard-response,256,346692,0.0-1.0-337.0,0,0,10,,,,,,83.0,,1.0,,,,,,,,,,,,,,,,,,,,,,,,,,283.5,1.5,,
257,,size_choice,,html-keyboard-response,257,347716,0.0-1.0-339.0,0,0,10,,1023.0,,,51.0,84.0,84.0,1.0,500.0,XL-XL,,XL,XL,4.0,4.0,van,crane,van2,crane8,191.0,167.0,/static/Size_judgement/Stimuli/Size_stims/XL/van/van4.jpg,/static/Size_judgement/Stimuli/Size_stims/XL/crane/crane10.jpg,0.0,crane,van,XL,XL,4.0,4.0,crane8,van2,,285.0,1.023,0.0,
258,,size_choice_confirmation,,html-keyboard-response,258,348197,0.0-1.0-340.0-0.0,0,0,10,,,,,,84.0,,1.0,,,,,,,,,,,,,,,,,,,,,,,,,,286.023,0.477,,
259,,iti,,html-keyboard-response,259,348698,0.0-1.0-341.0,0,0,10,,,,,,84.0,,1.0,,,,,,,,,,,,,,,,,,,,,,,,,,286.5,0.5,,
260,,size_choice,,html-keyboard-response,260,349505,0.0-1.0-343.0,0,0,10,,806.0,,,51.0,85.0,85.0,1.0,2500.0,M-XL,0.0,M,XL,2.0,4.0,basketball,crane,basketball10,crane9,59.0,168.0,/static/Size_judgement/Stimuli/Size_stims/M/basketball/basketball4.jpg,/static/Size_judgement/Stimuli/Size_stims/XL/crane/crane8.jpg,0.0,crane,basketball,XL,M,4.0,2.0,crane9,basketball10,1.0,287.0,0.806,0.0,
261,,size_choice_confirmation,,html-keyboard-response,261,350203,0.0-1.0-344.0-0.0,0,0,10,,,,,,85.0,,1.0,,,,,,,,,,,,,,,,,,,,,,,,,,287.806,0.694,,
262,,iti,,html-keyboard-response,262,352706,0.0-1.0-345.0,0,0,10,,,,,,85.0,,1.0,,,,,,,,,,,,,,,,,,,,,,,,,,288.5,2.5,,
263,,size_choice,,html-keyboard-response,263,353371,0.0-1.0-347.0,0,0,10,,664.0,,,51.0,86.0,86.0,1.0,500.0,S-XL,0.0,S,XL,1.0,4.0,die,dumptruck,die5,dumptruck9,104.0,178.0,/static/Size_judgement/Stimuli/Size_stims/S/die/die3.jpg,/static/Size_judgement/Stimuli/Size_stims/XL/dumptruck/dumptruck5.jpg,0.0,dumptruck,die,XL,S,4.0,1.0,dumptruck9,die5,1.0,291.0,0.664,0.0,
264,,size_choice_confirmation,,html-keyboard-response,264,354213,0.0-1.0-348.0-0.0,0,0,10,,,,,,86.0,,1.0,,,,,,,,,,,,,,,,,,,,,,,,,,291.664,0.836,,
265,,iti,,html-keyboard-response,265,354714,0.0-1.0-349.0,0,0,10,,,,,,86.0,,1.0,,,,,,,,,,,,,,,,,,,,,,,,,,292.5,0.5,,
266,,size_choice,,html-keyboard-response,266,355394,0.0-1.0-351.0,0,0,10,,679.0,,,51.0,87.0,87.0,1.0,500.0,S-XL,0.0,S,XL,1.0,4.0,teabag,car,teabag4,car9,133.0,158.0,/static/Size_judgement/Stimuli/Size_stims/S/teabag/teabag3.jpg,/static/Size_judgement/Stimuli/Size_stims/XL/car/car15.jpg,0.0,car,teabag,XL,S,4.0,1.0,car9,teabag4,1.0,293.0,0.679,0.0,
267,,size_choice_confirmation,,html-keyboard-response,267,356219,0.0-1.0-352.0-0.0,0,0,10,,,,,,87.0,,1.0,,,,,,,,,,,,,,,,,,,,,,,,,,293.679,0.821,,
268,,iti,,html-keyboard-response,268,356720,0.0-1.0-353.0,0,0,10,,,,,,87.0,,1.0,,,,,,,,,,,,,,,,,,,,,,,,,,294.5,0.5,,
269,,size_choice,,html-keyboard-response,269,357652,0.0-1.0-355.0,0,0,10,,931.0,,,50.0,88.0,88.0,1.0,2000.0,M-XL,1.0,XL,M,4.0,2.0,car,ketchup,car8,ketchup5,157.0,94.0,/static/Size_judgement/Stimuli/Size_stims/XL/car/car14.jpg,/static/Size_judgement/Stimuli/Size_stims/M/ketchup/ketchup3.jpg,1.0,car,ketchup,XL,M,4.0,2.0,car8,ketchup5,1.0,295.0,0.931,0.0,
270,,size_choice_confirmation,,html-keyboard-response,270,358224,0.0-1.0-356.0-0.0,0,0,10,,,,,,88.0,,1.0,,,,,,,,,,,,,,,,,,,,,,,,,,295.931,0.569,,
271,,iti,,html-keyboard-response,271,360229,0.0-1.0-357.0,0,0,10,,,,,,88.0,,1.0,,,,,,,,,,,,,,,,,,,,,,,,,,296.5,2.0,,
272,,size_choice,,html-keyboard-response,272,360857,0.0-1.0-359.0,0,0,10,,627.0,,,50.0,89.0,89.0,1.0,1000.0,M-L,1.0,L,M,3.0,2.0,cooler,handsaw,cooler10,handsaw7,9.0,86.0,/static/Size_judgement/Stimuli/Size_stims/L/cooler/cooler6.jpg,/static/Size_judgement/Stimuli/Size_stims/M/handsaw/handsaw5.jpg,1.0,cooler,handsaw,L,M,3.0,2.0,cooler10,handsaw7,1.0,298.5,0.627,0.0,
273,,size_choice_confirmation,,html-keyboard-response,273,361733,0.0-1.0-360.0-0.0,0,0,10,,,,,,89.0,,1.0,,,,,,,,,,,,,,,,,,,,,,,,,,299.127,0.873,,
274,,iti,,html-keyboard-response,274,362736,0.0-1.0-361.0,0,0,10,,,,,,89.0,,1.0,,,,,,,,,,,,,,,,,,,,,,,,,,300.0,1.0,,1.97
275,,size_final_tally,,html-keyboard-response,275,377873,0.0-2.0,0,0,10,,15135.0,,,50.0,,,,,,,,,,,,,,,,,,,,,,,,,,,,,,,,
