,success,ttype,start_time,trial_type,trial_index,time_elapsed,internal_node_id,warning,missed_checkup,PID,view_history,rt,responses,repeat_instructions,key_press,index,trial_num,block,iti,pair_type,high_size_on_left,left_size_group,right_size_group,left_size_num,right_size_num,left_category,right_category,left_exemplar,right_exemplar,left_index,right_index,left_img_path,right_img_path,left_chosen,chosen_category,unchosen_category,chosen_size_group,unchosen_size_group,chosen_size_num,unchosen_size_num,chosen_exemplar,unchosen_exemplar,accuracy,onset,duration,no_response,size_final_tally
0,True,full_screen,d06152022hr1755,fullscreen,0,3369,0.0-0.0,0,0,80,,,,,,,,,,,,,,,,,,,,,,,,,,,,,,,,,,,,,
1,,size_instructions,,instructions,1,26046,0.0-1.0-0.0-0.0,0,0,80,"[{""page_index"":0,""viewing_time"":2350},{""page_index"":1,""viewing_time"":717},{""page_index"":2,""viewing_time"":838},{""page_index"":3,""viewing_time"":1477},{""page_index"":4,""viewing_time"":16652},{""page_index"":5,""viewing_time"":641}]",22676.0,,,,,,,,,,,,,,,,,,,,,,,,,,,,,,,,,,,
2,,size_comprehension_check,,survey-multi-choice,2,31023,0.0-1.0-0.0-1.0,0,0,80,,4972.0,"{""Q0"":""True"",""Q1"":""Size on the screen"",""Q2"":""True"",""Q3"":""pointer finger for left and middle finger for right""}",1.0,,,,,,,,,,,,,,,,,,,,,,,,,,,,,,,,,
3,,missed_instruction_checkup,,html-keyboard-response,3,32634,0.0-1.0-0.0-2.0-0.0,0,0,80,,1609.0,,,50.0,,,,,,,,,,,,,,,,,,,,,,,,,,,,,,,,
4,,size_instructions,,instructions,4,36793,0.0-1.0-0.1-0.1,0,0,80,"[{""page_index"":0,""viewing_time"":1940},{""page_index"":1,""viewing_time"":264},{""page_index"":2,""viewing_time"":216},{""page_index"":3,""viewing_time"":516},{""page_index"":4,""viewing_time"":687},{""page_index"":5,""viewing_time"":534}]",4158.0,,,,,,,,,,,,,,,,,,,,,,,,,,,,,,,,,,,
5,,size_comprehension_check,,survey-multi-choice,5,42490,0.0-1.0-0.1-1.1,0,0,80,,5693.0,"{""Q0"":""True"",""Q1"":""Size in the real world"",""Q2"":""True"",""Q3"":""pointer finger for left and middle finger for right""}",0.0,,,,,,,,,,,,,,,,,,,,,,,,,,,,,,,,,
6,,,,html-keyboard-response,6,49138,0.0-1.0-1.0,0,0,80,,6646.0,,,83.0,,,,,,,,,,,,,,,,,,,,,,,,,,,,,,,,
7,,start_run,,html-keyboard-response,7,247917,0.0-1.0-2.0,0,0,80,,198777.0,,,84.0,,,,,,,,,,,,,,,,,,,,,,,,,,,,,,,,
8,,size_choice,,html-keyboard-response,8,248555,0.0-1.0-3.0,0,0,80,,637.0,,,50.0,0.0,0.0,1.0,1000.0,S-S,,S,S,1.0,1.0,thread,paperclip,thread7,paperclip1,146.0,110.0,/static/Size_judgement/Stimuli/Size_stims/S/thread/thread3.jpg,/static/Size_judgement/Stimuli/Size_stims/S/paperclip/paperclip9.jpg,1.0,thread,paperclip,S,S,1.0,1.0,thread7,paperclip1,,0.0,0.637,0.0,
9,,size_choice_confirmation,,html-keyboard-response,9,249420,0.0-1.0-4.0-0.0,0,0,80,,,,,,0.0,,1.0,,,,,,,,,,,,,,,,,,,,,,,,,,0.637,0.863,,
10,,iti,,html-keyboard-response,10,250424,0.0-1.0-5.0,0,0,80,,,,,,0.0,,1.0,,,,,,,,,,,,,,,,,,,,,,,,,,1.5,1.0,,
11,,size_choice,,html-keyboard-response,11,250782,0.0-1.0-7.0,0,0,80,,356.0,,,50.0,1.0,1.0,1.0,2500.0,M-L,1.0,L,M,3.0,2.0,mailbox,ketchup,mailbox9,ketchup7,48.0,96.0,/static/Size_judgement/Stimuli/Size_stims/L/mailbox/mailbox9.jpg,/static/Size_judgement/Stimuli/Size_stims/M/ketchup/ketchup4.jpg,1.0,mailbox,ketchup,L,M,3.0,2.0,mailbox9,ketchup7,1.0,2.5,0.356,0.0,
12,,size_choice_confirmation,,html-keyboard-response,12,251932,0.0-1.0-8.0-0.0,0,0,80,,,,,,1.0,,1.0,,,,,,,,,,,,,,,,,,,,,,,,,,2.856,1.144,,
13,,iti,,html-keyboard-response,13,254438,0.0-1.0-9.0,0,0,80,,,,,,1.0,,1.0,,,,,,,,,,,,,,,,,,,,,,,,,,4.0,2.5,,
14,,size_choice,,html-keyboard-response,14,254695,0.0-1.0-11.0,0,0,80,,256.0,,,50.0,2.0,2.0,1.0,1000.0,L-L,,L,L,3.0,3.0,dishwasher,cooler,dishwasher4,cooler3,23.0,2.0,/static/Size_judgement/Stimuli/Size_stims/L/dishwasher/dishwasher5.jpg,/static/Size_judgement/Stimuli/Size_stims/L/cooler/cooler2.jpg,1.0,dishwasher,cooler,L,L,3.0,3.0,dishwasher4,cooler3,,6.5,0.256,0.0,
15,,size_choice_confirmation,,html-keyboard-response,15,255944,0.0-1.0-12.0-0.0,0,0,80,,,,,,2.0,,1.0,,,,,,,,,,,,,,,,,,,,,,,,,,6.756,1.244,,
16,,iti,,html-keyboard-response,16,256950,0.0-1.0-13.0,0,0,80,,,,,,2.0,,1.0,,,,,,,,,,,,,,,,,,,,,,,,,,8.0,1.0,,
17,,size_choice,,html-keyboard-response,17,257123,0.0-1.0-15.0,0,0,80,,172.0,,,50.0,3.0,3.0,1.0,500.0,L-XL,0.0,L,XL,3.0,4.0,garbagecan,dumptruck,garbagecan9,dumptruck7,38.0,176.0,/static/Size_judgement/Stimuli/Size_stims/L/garbagecan/garbagecan12.jpg,/static/Size_judgement/Stimuli/Size_stims/XL/dumptruck/dumptruck6.jpg,1.0,garbagecan,dumptruck,L,XL,3.0,4.0,garbagecan9,dumptruck7,0.0,9.0,0.172,0.0,
18,,size_choice_confirmation,,html-keyboard-response,18,258453,0.0-1.0-16.0-0.0,0,0,80,,,,,,3.0,,1.0,,,,,,,,,,,,,,,,,,,,,,,,,,9.172,1.328,,
19,,iti,,html-keyboard-response,19,258958,0.0-1.0-17.0,0,0,80,,,,,,3.0,,1.0,,,,,,,,,,,,,,,,,,,,,,,,,,10.5,0.5,,
20,,size_choice,,html-keyboard-response,20,259133,0.0-1.0-19.0,0,0,80,,174.0,,,50.0,4.0,4.0,1.0,500.0,S-L,1.0,L,S,3.0,1.0,cooler,paperclip,cooler8,paperclip6,7.0,115.0,/static/Size_judgement/Stimuli/Size_stims/L/cooler/cooler5.jpg,/static/Size_judgement/Stimuli/Size_stims/S/paperclip/paperclip6.jpg,1.0,cooler,paperclip,L,S,3.0,1.0,cooler8,paperclip6,1.0,11.0,0.174,0.0,
21,,size_choice_confirmation,,html-keyboard-response,21,260462,0.0-1.0-20.0-0.0,0,0,80,,,,,,4.0,,1.0,,,,,,,,,,,,,,,,,,,,,,,,,,11.174,1.326,,
22,,iti,,html-keyboard-response,22,260965,0.0-1.0-21.0,0,0,80,,,,,,4.0,,1.0,,,,,,,,,,,,,,,,,,,,,,,,,,12.5,0.5,,
23,,size_choice,,html-keyboard-response,23,261366,0.0-1.0-23.0,0,0,80,,399.0,,,50.0,5.0,5.0,1.0,1000.0,XL-XL,,XL,XL,4.0,4.0,van,car,van3,car4,192.0,153.0,/static/Size_judgement/Stimuli/Size_stims/XL/van/van6.jpg,/static/Size_judgement/Stimuli/Size_stims/XL/car/car6.jpg,1.0,van,car,XL,XL,4.0,4.0,van3,car4,,13.0,0.399,0.0,
24,,size_choice_confirmation,,html-keyboard-response,24,262469,0.0-1.0-24.0-0.0,0,0,80,,,,,,5.0,,1.0,,,,,,,,,,,,,,,,,,,,,,,,,,13.399,1.101,,
25,,iti,,html-keyboard-response,25,263475,0.0-1.0-25.0,0,0,80,,,,,,5.0,,1.0,,,,,,,,,,,,,,,,,,,,,,,,,,14.5,1.0,,
26,,size_choice,,html-keyboard-response,26,263926,0.0-1.0-27.0,0,0,80,,450.0,,,50.0,6.0,6.0,1.0,2500.0,M-XL,1.0,XL,M,4.0,2.0,van,hairdryer,van8,hairdryer9,197.0,78.0,/static/Size_judgement/Stimuli/Size_stims/XL/van/van10.jpg,/static/Size_judgement/Stimuli/Size_stims/M/hairdryer/hairdryer5.jpg,1.0,van,hairdryer,XL,M,4.0,2.0,van8,hairdryer9,1.0,15.5,0.45,0.0,
27,,size_choice_confirmation,,html-keyboard-response,27,264982,0.0-1.0-28.0-0.0,0,0,80,,,,,,6.0,,1.0,,,,,,,,,,,,,,,,,,,,,,,,,,15.95,1.05,,
28,,iti,,html-keyboard-response,28,267486,0.0-1.0-29.0,0,0,80,,,,,,6.0,,1.0,,,,,,,,,,,,,,,,,,,,,,,,,,17.0,2.5,,
29,,size_choice,,html-keyboard-response,29,267534,0.0-1.0-31.0,0,0,80,,46.0,,,50.0,7.0,7.0,1.0,3500.0,XL-XL,,XL,XL,4.0,4.0,crane,car,crane10,car8,169.0,157.0,/static/Size_judgement/Stimuli/Size_stims/XL/crane/crane9.jpg,/static/Size_judgement/Stimuli/Size_stims/XL/car/car14.jpg,1.0,crane,car,XL,XL,4.0,4.0,crane10,car8,,19.5,0.046,0.0,
30,,size_choice_confirmation,,html-keyboard-response,30,268990,0.0-1.0-32.0-0.0,0,0,80,,,,,,7.0,,1.0,,,,,,,,,,,,,,,,,,,,,,,,,,19.546,1.454,,
31,,iti,,html-keyboard-response,31,272494,0.0-1.0-33.0,0,0,80,,,,,,7.0,,1.0,,,,,,,,,,,,,,,,,,,,,,,,,,21.0,3.5,,
32,,size_choice,,html-keyboard-response,32,272605,0.0-1.0-35.0,0,0,80,,109.0,,,50.0,8.0,8.0,1.0,500.0,S-XL,1.0,XL,S,4.0,1.0,dumptruck,die,dumptruck1,die6,170.0,105.0,/static/Size_judgement/Stimuli/Size_stims/XL/dumptruck/dumptruck9.jpg,/static/Size_judgement/Stimuli/Size_stims/S/die/die1.jpg,1.0,dumptruck,die,XL,S,4.0,1.0,dumptruck1,die6,1.0,24.5,0.109,0.0,
33,,size_choice_confirmation,,html-keyboard-response,33,273998,0.0-1.0-36.0-0.0,0,0,80,,,,,,8.0,,1.0,,,,,,,,,,,,,,,,,,,,,,,,,,24.609,1.391,,
34,,iti,,html-keyboard-response,34,274502,0.0-1.0-37.0,0,0,80,,,,,,8.0,,1.0,,,,,,,,,,,,,,,,,,,,,,,,,,26.0,0.5,,
35,,size_choice,,html-keyboard-response,35,274622,0.0-1.0-39.0,0,0,80,,120.0,,,50.0,9.0,9.0,1.0,500.0,M-XL,1.0,XL,M,4.0,2.0,dumptruck,hairdryer,dumptruck10,hairdryer8,179.0,77.0,/static/Size_judgement/Stimuli/Size_stims/XL/dumptruck/dumptruck4.jpg,/static/Size_judgement/Stimuli/Size_stims/M/hairdryer/hairdryer1.jpg,1.0,dumptruck,hairdryer,XL,M,4.0,2.0,dumptruck10,hairdryer8,1.0,26.5,0.12,0.0,
36,,size_choice_confirmation,,html-keyboard-response,36,276005,0.0-1.0-40.0-0.0,0,0,80,,,,,,9.0,,1.0,,,,,,,,,,,,,,,,,,,,,,,,,,26.62,1.38,,
37,,iti,,html-keyboard-response,37,276506,0.0-1.0-41.0,0,0,80,,,,,,9.0,,1.0,,,,,,,,,,,,,,,,,,,,,,,,,,28.0,0.5,,
38,,size_choice,,html-keyboard-response,38,276783,0.0-1.0-43.0,0,0,80,,275.0,,,50.0,10.0,10.0,1.0,1500.0,M-XL,1.0,XL,M,4.0,2.0,tractor,ketchup,tractor10,ketchup6,189.0,95.0,/static/Size_judgement/Stimuli/Size_stims/XL/tractor/tractor8.jpg,/static/Size_judgement/Stimuli/Size_stims/M/ketchup/ketchup1.jpg,1.0,tractor,ketchup,XL,M,4.0,2.0,tractor10,ketchup6,1.0,28.5,0.275,0.0,
39,,size_choice_confirmation,,html-keyboard-response,39,278010,0.0-1.0-44.0-0.0,0,0,80,,,,,,10.0,,1.0,,,,,,,,,,,,,,,,,,,,,,,,,,28.775,1.225,,
40,,iti,,html-keyboard-response,40,279513,0.0-1.0-45.0,0,0,80,,,,,,10.0,,1.0,,,,,,,,,,,,,,,,,,,,,,,,,,30.0,1.5,,
41,,size_choice,,html-keyboard-response,41,279830,0.0-1.0-47.0,0,0,80,,316.0,,,50.0,11.0,11.0,1.0,500.0,M-L,1.0,L,M,3.0,2.0,garbagecan,handsaw,garbagecan1,handsaw9,30.0,88.0,/static/Size_judgement/Stimuli/Size_stims/L/garbagecan/garbagecan4.jpg,/static/Size_judgement/Stimuli/Size_stims/M/handsaw/handsaw6.jpg,1.0,garbagecan,handsaw,L,M,3.0,2.0,garbagecan1,handsaw9,1.0,31.5,0.316,0.0,
42,,size_choice_confirmation,,html-keyboard-response,42,281017,0.0-1.0-48.0-0.0,0,0,80,,,,,,11.0,,1.0,,,,,,,,,,,,,,,,,,,,,,,,,,31.816,1.184,,
43,,iti,,html-keyboard-response,43,281521,0.0-1.0-49.0,0,0,80,,,,,,11.0,,1.0,,,,,,,,,,,,,,,,,,,,,,,,,,33.0,0.5,,
44,,size_choice,,html-keyboard-response,44,281799,0.0-1.0-51.0,0,0,80,,276.0,,,50.0,12.0,12.0,1.0,2000.0,S-L,1.0,L,S,3.0,1.0,cooler,screws,cooler4,screws5,3.0,124.0,/static/Size_judgement/Stimuli/Size_stims/L/cooler/cooler3.jpg,/static/Size_judgement/Stimuli/Size_stims/S/screws/screws2.jpg,1.0,cooler,screws,L,S,3.0,1.0,cooler4,screws5,1.0,33.5,0.276,0.0,
45,,size_choice_confirmation,,html-keyboard-response,45,283028,0.0-1.0-52.0-0.0,0,0,80,,,,,,12.0,,1.0,,,,,,,,,,,,,,,,,,,,,,,,,,33.776,1.224,,
46,,iti,,html-keyboard-response,46,285030,0.0-1.0-53.0,0,0,80,,,,,,12.0,,1.0,,,,,,,,,,,,,,,,,,,,,,,,,,35.0,2.0,,
47,,size_choice,,html-keyboard-response,47,285735,0.0-1.0-55.0,0,0,80,,704.0,,,50.0,13.0,13.0,1.0,500.0,S-L,1.0,L,S,3.0,1.0,cooler,thread,cooler1,thread2,0.0,141.0,/static/Size_judgement/Stimuli/Size_stims/L/cooler/cooler8.jpg,/static/Size_judgement/Stimuli/Size_stims/S/thread/thread6.jpg,1.0,cooler,thread,L,S,3.0,1.0,cooler1,thread2,1.0,37.0,0.704,0.0,
48,,size_choice_confirmation,,html-keyboard-response,48,286534,0.0-1.0-56.0-0.0,0,0,80,,,,,,13.0,,1.0,,,,,,,,,,,,,,,,,,,,,,,,,,37.704,0.796,,
49,,iti,,html-keyboard-response,49,287039,0.0-1.0-57.0,0,0,80,,,,,,13.0,,1.0,,,,,,,,,,,,,,,,,,,,,,,,,,38.5,0.5,,
50,,size_choice,,html-keyboard-response,50,287051,0.0-1.0-59.0,0,0,80,,11.0,,,50.0,14.0,14.0,1.0,1500.0,M-XL,0.0,M,XL,2.0,4.0,basketball,tractor,basketball7,tractor6,56.0,185.0,/static/Size_judgement/Stimuli/Size_stims/M/basketball/basketball6.jpg,/static/Size_judgement/Stimuli/Size_stims/XL/tractor/tractor3.jpg,1.0,basketball,tractor,M,XL,2.0,4.0,basketball7,tractor6,0.0,39.0,0.011,0.0,
51,,size_choice_confirmation,,html-keyboard-response,51,288543,0.0-1.0-60.0-0.0,0,0,80,,,,,,14.0,,1.0,,,,,,,,,,,,,,,,,,,,,,,,,,39.011,1.489,,
52,,iti,,html-keyboard-response,52,290046,0.0-1.0-61.0,0,0,80,,,,,,14.0,,1.0,,,,,,,,,,,,,,,,,,,,,,,,,,40.5,1.5,,
53,,size_choice,,html-keyboard-response,53,290167,0.0-1.0-63.0,0,0,80,,119.0,,,50.0,15.0,15.0,1.0,500.0,M-L,0.0,M,L,2.0,3.0,coffeemaker,cooler,coffeemaker3,cooler7,62.0,6.0,/static/Size_judgement/Stimuli/Size_stims/M/coffeemaker/coffeemaker13.jpg,/static/Size_judgement/Stimuli/Size_stims/L/cooler/cooler4.jpg,1.0,coffeemaker,cooler,M,L,2.0,3.0,coffeemaker3,cooler7,0.0,42.0,0.119,0.0,
54,,size_choice_confirmation,,html-keyboard-response,54,291551,0.0-1.0-64.0-0.0,0,0,80,,,,,,15.0,,1.0,,,,,,,,,,,,,,,,,,,,,,,,,,42.119,1.381,,
55,,iti,,html-keyboard-response,55,292052,0.0-1.0-65.0,0,0,80,,,,,,15.0,,1.0,,,,,,,,,,,,,,,,,,,,,,,,,,43.5,0.5,,
56,,size_choice,,html-keyboard-response,56,292903,0.0-1.0-67.0,0,0,80,,849.0,,,50.0,16.0,16.0,1.0,1500.0,M-M,,M,M,2.0,2.0,hairdryer,basketball,hairdryer3,basketball3,72.0,52.0,/static/Size_judgement/Stimuli/Size_stims/M/hairdryer/hairdryer17.jpg,/static/Size_judgement/Stimuli/Size_stims/M/basketball/basketball10.jpg,1.0,hairdryer,basketball,M,M,2.0,2.0,hairdryer3,basketball3,,44.0,0.849,0.0,
57,,size_choice_confirmation,,html-keyboard-response,57,293556,0.0-1.0-68.0-0.0,0,0,80,,,,,,16.0,,1.0,,,,,,,,,,,,,,,,,,,,,,,,,,44.849,0.651,,
58,,iti,,html-keyboard-response,58,295060,0.0-1.0-69.0,0,0,80,,,,,,16.0,,1.0,,,,,,,,,,,,,,,,,,,,,,,,,,45.5,1.5,,
59,,size_choice,,html-keyboard-response,59,295384,0.0-1.0-71.0,0,0,80,,324.0,,,50.0,17.0,17.0,1.0,500.0,S-L,0.0,S,L,1.0,3.0,die,mailbox,die10,mailbox10,109.0,49.0,/static/Size_judgement/Stimuli/Size_stims/S/die/die6.jpg,/static/Size_judgement/Stimuli/Size_stims/L/mailbox/mailbox8.jpg,1.0,die,mailbox,S,L,1.0,3.0,die10,mailbox10,0.0,47.0,0.324,0.0,
60,,size_choice_confirmation,,html-keyboard-response,60,296564,0.0-1.0-72.0-0.0,0,0,80,,,,,,17.0,,1.0,,,,,,,,,,,,,,,,,,,,,,,,,,47.324,1.176,,
61,,iti,,html-keyboard-response,61,297066,0.0-1.0-73.0,0,0,80,,,,,,17.0,,1.0,,,,,,,,,,,,,,,,,,,,,,,,,,48.5,0.5,,
62,,size_choice,,html-keyboard-response,62,297077,0.0-1.0-75.0,0,0,80,,9.0,,,50.0,18.0,18.0,1.0,3500.0,M-XL,1.0,XL,M,4.0,2.0,crane,coffeemaker,crane5,coffeemaker2,164.0,61.0,/static/Size_judgement/Stimuli/Size_stims/XL/crane/crane1.jpg,/static/Size_judgement/Stimuli/Size_stims/M/coffeemaker/coffeemaker12.jpg,1.0,crane,coffeemaker,XL,M,4.0,2.0,crane5,coffeemaker2,1.0,49.0,0.009,0.0,
63,,size_choice_confirmation,,html-keyboard-response,63,298569,0.0-1.0-76.0-0.0,0,0,80,,,,,,18.0,,1.0,,,,,,,,,,,,,,,,,,,,,,,,,,49.009,1.491,,
64,,iti,,html-keyboard-response,64,302074,0.0-1.0-77.0,0,0,80,,,,,,18.0,,1.0,,,,,,,,,,,,,,,,,,,,,,,,,,50.5,3.5,,
65,,size_choice,,html-keyboard-response,65,302247,0.0-1.0-79.0,0,0,80,,172.0,,,50.0,19.0,19.0,1.0,1500.0,M-XL,1.0,XL,M,4.0,2.0,car,handsaw,car6,handsaw2,155.0,81.0,/static/Size_judgement/Stimuli/Size_stims/XL/car/car12.jpg,/static/Size_judgement/Stimuli/Size_stims/M/handsaw/handsaw9.jpg,1.0,car,handsaw,XL,M,4.0,2.0,car6,handsaw2,1.0,54.0,0.172,0.0,
66,,size_choice_confirmation,,html-keyboard-response,66,303578,0.0-1.0-80.0-0.0,0,0,80,,,,,,19.0,,1.0,,,,,,,,,,,,,,,,,,,,,,,,,,54.172,1.328,,
67,,iti,,html-keyboard-response,67,305080,0.0-1.0-81.0,0,0,80,,,,,,19.0,,1.0,,,,,,,,,,,,,,,,,,,,,,,,,,55.5,1.5,,
68,,size_choice,,html-keyboard-response,68,306142,0.0-1.0-83.0,0,0,80,,1061.0,,,50.0,20.0,20.0,1.0,500.0,M-M,,M,M,2.0,2.0,handsaw,ketchup,handsaw4,ketchup9,83.0,98.0,/static/Size_judgement/Stimuli/Size_stims/M/handsaw/handsaw3.jpg,/static/Size_judgement/Stimuli/Size_stims/M/ketchup/ketchup7.jpg,1.0,handsaw,ketchup,M,M,2.0,2.0,handsaw4,ketchup9,,57.0,1.061,0.0,
69,,size_choice_confirmation,,html-keyboard-response,69,306582,0.0-1.0-84.0-0.0,0,0,80,,,,,,20.0,,1.0,,,,,,,,,,,,,,,,,,,,,,,,,,58.061,0.439,,
70,,iti,,html-keyboard-response,70,307085,0.0-1.0-85.0,0,0,80,,,,,,20.0,,1.0,,,,,,,,,,,,,,,,,,,,,,,,,,58.5,0.5,,
71,,size_choice,,html-keyboard-response,71,307472,0.0-1.0-87.0,0,0,80,,386.0,,,50.0,21.0,21.0,1.0,5500.0,S-XL,1.0,XL,S,4.0,1.0,crane,screws,crane8,screws2,167.0,121.0,/static/Size_judgement/Stimuli/Size_stims/XL/crane/crane10.jpg,/static/Size_judgement/Stimuli/Size_stims/S/screws/screws5.jpg,1.0,crane,screws,XL,S,4.0,1.0,crane8,screws2,1.0,59.0,0.386,0.0,
72,,size_choice_confirmation,,html-keyboard-response,72,308591,0.0-1.0-88.0-0.0,0,0,80,,,,,,21.0,,1.0,,,,,,,,,,,,,,,,,,,,,,,,,,59.386,1.114,,
73,,iti,,html-keyboard-response,73,314095,0.0-1.0-89.0,0,0,80,,,,,,21.0,,1.0,,,,,,,,,,,,,,,,,,,,,,,,,,60.5,5.5,,
74,,size_choice,,html-keyboard-response,74,315597,0.0-1.0-91.0,0,0,80,,,,,,22.0,22.0,1.0,500.0,M-L,1.0,L,M,3.0,2.0,garbagecan,hairdryer,garbagecan10,hairdryer7,39.0,76.0,/static/Size_judgement/Stimuli/Size_stims/L/garbagecan/garbagecan11.jpg,/static/Size_judgement/Stimuli/Size_stims/M/hairdryer/hairdryer3.jpg,,,,,,,,,,,66.0,1.5,1.0,
75,,iti,,html-keyboard-response,75,316101,0.0-1.0-93.0,0,0,80,,,,,,22.0,,1.0,,,,,,,,,,,,,,,,,,,,,,,,,,67.5,0.5,,
76,,size_choice,,html-keyboard-response,76,316367,0.0-1.0-95.0,0,0,80,,265.0,,,50.0,23.0,23.0,1.0,2500.0,S-L,1.0,L,S,3.0,1.0,deskchair,paperclip,deskchair1,paperclip5,10.0,114.0,/static/Size_judgement/Stimuli/Size_stims/L/deskchair/deskchair9.jpg,/static/Size_judgement/Stimuli/Size_stims/S/paperclip/paperclip2.jpg,1.0,deskchair,paperclip,L,S,3.0,1.0,deskchair1,paperclip5,1.0,68.0,0.265,0.0,
77,,size_choice_confirmation,,html-keyboard-response,77,317605,0.0-1.0-96.0-0.0,0,0,80,,,,,,23.0,,1.0,,,,,,,,,,,,,,,,,,,,,,,,,,68.265,1.235,,
78,,iti,,html-keyboard-response,78,320111,0.0-1.0-97.0,0,0,80,,,,,,23.0,,1.0,,,,,,,,,,,,,,,,,,,,,,,,,,69.5,2.5,,
79,,size_choice,,html-keyboard-response,79,321616,0.0-1.0-99.0,0,0,80,,,,,,24.0,24.0,1.0,4000.0,M-XL,0.0,M,XL,2.0,4.0,coffeemaker,van,coffeemaker9,van4,68.0,193.0,/static/Size_judgement/Stimuli/Size_stims/M/coffeemaker/coffeemaker7.jpg,/static/Size_judgement/Stimuli/Size_stims/XL/van/van7.jpg,,,,,,,,,,,72.0,1.5,1.0,
80,,iti,,html-keyboard-response,80,325621,0.0-1.0-101.0,0,0,80,,,,,,24.0,,1.0,,,,,,,,,,,,,,,,,,,,,,,,,,73.5,4.0,,
81,,size_choice,,html-keyboard-response,81,327126,0.0-1.0-103.0,0,0,80,,,,,,25.0,25.0,1.0,2000.0,L-L,,L,L,3.0,3.0,deskchair,mailbox,deskchair10,mailbox3,19.0,42.0,/static/Size_judgement/Stimuli/Size_stims/L/deskchair/deskchair2.jpg,/static/Size_judgement/Stimuli/Size_stims/L/mailbox/mailbox1.jpg,,,,,,,,,,,77.5,1.5,1.0,
82,,iti,,html-keyboard-response,82,329131,0.0-1.0-105.0,0,0,80,,,,,,25.0,,1.0,,,,,,,,,,,,,,,,,,,,,,,,,,79.0,2.0,,
83,,size_choice,,html-keyboard-response,83,329149,0.0-1.0-107.0,0,0,80,,17.0,,,50.0,26.0,26.0,1.0,6000.0,M-L,1.0,L,M,3.0,2.0,mailbox,basketball,mailbox7,basketball1,46.0,50.0,/static/Size_judgement/Stimuli/Size_stims/L/mailbox/mailbox7.jpg,/static/Size_judgement/Stimuli/Size_stims/M/basketball/basketball9.jpg,1.0,mailbox,basketball,L,M,3.0,2.0,mailbox7,basketball1,1.0,81.0,0.017,0.0,
84,,size_choice_confirmation,,html-keyboard-response,84,330633,0.0-1.0-108.0-0.0,0,0,80,,,,,,26.0,,1.0,,,,,,,,,,,,,,,,,,,,,,,,,,81.017,1.483,,
85,,iti,,html-keyboard-response,85,336635,0.0-1.0-109.0,0,0,80,,,,,,26.0,,1.0,,,,,,,,,,,,,,,,,,,,,,,,,,82.5,6.0,,
86,,size_choice,,html-keyboard-response,86,337369,0.0-1.0-111.0,0,0,80,,732.0,,,50.0,27.0,27.0,1.0,1500.0,S-XL,0.0,S,XL,1.0,4.0,teabag,dumptruck,teabag8,dumptruck8,137.0,177.0,/static/Size_judgement/Stimuli/Size_stims/S/teabag/teabag7.jpg,/static/Size_judgement/Stimuli/Size_stims/XL/dumptruck/dumptruck7.jpg,1.0,teabag,dumptruck,S,XL,1.0,4.0,teabag8,dumptruck8,0.0,88.5,0.732,0.0,
87,,size_choice_confirmation,,html-keyboard-response,87,338139,0.0-1.0-112.0-0.0,0,0,80,,,,,,27.0,,1.0,,,,,,,,,,,,,,,,,,,,,,,,,,89.232,0.768,,
88,,iti,,html-keyboard-response,88,339643,0.0-1.0-113.0,0,0,80,,,,,,27.0,,1.0,,,,,,,,,,,,,,,,,,,,,,,,,,90.0,1.5,,
89,,size_choice,,html-keyboard-response,89,340233,0.0-1.0-115.0,0,0,80,,589.0,,,50.0,28.0,28.0,1.0,2000.0,M-XL,1.0,XL,M,4.0,2.0,dumptruck,ketchup,dumptruck4,ketchup2,173.0,91.0,/static/Size_judgement/Stimuli/Size_stims/XL/dumptruck/dumptruck1.jpg,/static/Size_judgement/Stimuli/Size_stims/M/ketchup/ketchup9.jpg,1.0,dumptruck,ketchup,XL,M,4.0,2.0,dumptruck4,ketchup2,1.0,91.5,0.589,0.0,
90,,size_choice_confirmation,,html-keyboard-response,90,341147,0.0-1.0-116.0-0.0,0,0,80,,,,,,28.0,,1.0,,,,,,,,,,,,,,,,,,,,,,,,,,92.089,0.911,,
91,,iti,,html-keyboard-response,91,343152,0.0-1.0-117.0,0,0,80,,,,,,28.0,,1.0,,,,,,,,,,,,,,,,,,,,,,,,,,93.0,2.0,,
92,,size_choice,,html-keyboard-response,92,343624,0.0-1.0-119.0,0,0,80,,469.0,,,50.0,29.0,29.0,1.0,500.0,M-L,0.0,M,L,2.0,3.0,coffeemaker,garbagecan,coffeemaker5,garbagecan4,64.0,33.0,/static/Size_judgement/Stimuli/Size_stims/M/coffeemaker/coffeemaker10.jpg,/static/Size_judgement/Stimuli/Size_stims/L/garbagecan/garbagecan6.jpg,1.0,coffeemaker,garbagecan,M,L,2.0,3.0,coffeemaker5,garbagecan4,0.0,95.0,0.469,0.0,
93,,size_choice_confirmation,,html-keyboard-response,93,344656,0.0-1.0-120.0-0.0,0,0,80,,,,,,29.0,,1.0,,,,,,,,,,,,,,,,,,,,,,,,,,95.469,1.031,,
94,,iti,,html-keyboard-response,94,345158,0.0-1.0-121.0,0,0,80,,,,,,29.0,,1.0,,,,,,,,,,,,,,,,,,,,,,,,,,96.5,0.5,,
95,,size_choice,,html-keyboard-response,95,345305,0.0-1.0-123.0,0,0,80,,146.0,,,50.0,30.0,30.0,1.0,1000.0,L-XL,0.0,L,XL,3.0,4.0,dishwasher,van,dishwasher2,van9,21.0,198.0,/static/Size_judgement/Stimuli/Size_stims/L/dishwasher/dishwasher9.jpg,/static/Size_judgement/Stimuli/Size_stims/XL/van/van9.jpg,1.0,dishwasher,van,L,XL,3.0,4.0,dishwasher2,van9,0.0,97.0,0.146,0.0,
96,,size_choice_confirmation,,html-keyboard-response,96,346663,0.0-1.0-124.0-0.0,0,0,80,,,,,,30.0,,1.0,,,,,,,,,,,,,,,,,,,,,,,,,,97.146,1.354,,
97,,iti,,html-keyboard-response,97,347664,0.0-1.0-125.0,0,0,80,,,,,,30.0,,1.0,,,,,,,,,,,,,,,,,,,,,,,,,,98.5,1.0,,
98,,size_choice,,html-keyboard-response,98,348048,0.0-1.0-127.0,0,0,80,,381.0,,,50.0,31.0,31.0,1.0,1000.0,M-M,,M,M,2.0,2.0,ketchup,hairdryer,ketchup3,hairdryer2,92.0,71.0,/static/Size_judgement/Stimuli/Size_stims/M/ketchup/ketchup10.jpg,/static/Size_judgement/Stimuli/Size_stims/M/hairdryer/hairdryer12.jpg,1.0,ketchup,hairdryer,M,M,2.0,2.0,ketchup3,hairdryer2,,99.5,0.381,0.0,
99,,size_choice_confirmation,,html-keyboard-response,99,349169,0.0-1.0-128.0-0.0,0,0,80,,,,,,31.0,,1.0,,,,,,,,,,,,,,,,,,,,,,,,,,99.881,1.119,,
100,,iti,,html-keyboard-response,100,350171,0.0-1.0-129.0,0,0,80,,,,,,31.0,,1.0,,,,,,,,,,,,,,,,,,,,,,,,,,101.0,1.0,,
101,,size_choice,,html-keyboard-response,101,351675,0.0-1.0-131.0,0,0,80,,,,,,32.0,32.0,1.0,500.0,S-L,0.0,S,L,1.0,3.0,screws,garbagecan,screws10,garbagecan2,129.0,31.0,/static/Size_judgement/Stimuli/Size_stims/S/screws/screws9.jpg,/static/Size_judgement/Stimuli/Size_stims/L/garbagecan/garbagecan5.jpg,,,,,,,,,,,102.0,1.5,1.0,
102,,iti,,html-keyboard-response,102,352176,0.0-1.0-133.0,0,0,80,,,,,,32.0,,1.0,,,,,,,,,,,,,,,,,,,,,,,,,,103.5,0.5,,
103,,size_choice,,html-keyboard-response,103,352414,0.0-1.0-135.0,0,0,80,,236.0,,,50.0,33.0,33.0,1.0,500.0,S-M,0.0,S,M,1.0,2.0,teabag,coffeemaker,teabag9,coffeemaker8,138.0,67.0,/static/Size_judgement/Stimuli/Size_stims/S/teabag/teabag5.jpg,/static/Size_judgement/Stimuli/Size_stims/M/coffeemaker/coffeemaker5.jpg,1.0,teabag,coffeemaker,S,M,1.0,2.0,teabag9,coffeemaker8,0.0,104.0,0.236,0.0,
104,,size_choice_confirmation,,html-keyboard-response,104,353681,0.0-1.0-136.0-0.0,0,0,80,,,,,,33.0,,1.0,,,,,,,,,,,,,,,,,,,,,,,,,,104.236,1.264,,
105,,iti,,html-keyboard-response,105,354184,0.0-1.0-137.0,0,0,80,,,,,,33.0,,1.0,,,,,,,,,,,,,,,,,,,,,,,,,,105.5,0.5,,
106,,size_choice,,html-keyboard-response,106,354432,0.0-1.0-139.0,0,0,80,,247.0,,,50.0,34.0,34.0,1.0,5000.0,S-L,0.0,S,L,1.0,3.0,die,mailbox,die5,mailbox2,104.0,41.0,/static/Size_judgement/Stimuli/Size_stims/S/die/die3.jpg,/static/Size_judgement/Stimuli/Size_stims/L/mailbox/mailbox2.jpg,1.0,die,mailbox,S,L,1.0,3.0,die5,mailbox2,0.0,106.0,0.247,0.0,
107,,size_choice_confirmation,,html-keyboard-response,107,355687,0.0-1.0-140.0-0.0,0,0,80,,,,,,34.0,,1.0,,,,,,,,,,,,,,,,,,,,,,,,,,106.247,1.253,,
108,,iti,,html-keyboard-response,108,360693,0.0-1.0-141.0,0,0,80,,,,,,34.0,,1.0,,,,,,,,,,,,,,,,,,,,,,,,,,107.5,5.0,,
109,,size_choice,,html-keyboard-response,109,360785,0.0-1.0-143.0,0,0,80,,90.0,,,50.0,35.0,35.0,1.0,2500.0,S-XL,1.0,XL,S,4.0,1.0,crane,thread,crane9,thread5,168.0,144.0,/static/Size_judgement/Stimuli/Size_stims/XL/crane/crane8.jpg,/static/Size_judgement/Stimuli/Size_stims/S/thread/thread1.jpg,1.0,crane,thread,XL,S,4.0,1.0,crane9,thread5,1.0,112.5,0.09,0.0,
110,,size_choice_confirmation,,html-keyboard-response,110,362198,0.0-1.0-144.0-0.0,0,0,80,,,,,,35.0,,1.0,,,,,,,,,,,,,,,,,,,,,,,,,,112.59,1.41,,
111,,iti,,html-keyboard-response,111,364703,0.0-1.0-145.0,0,0,80,,,,,,35.0,,1.0,,,,,,,,,,,,,,,,,,,,,,,,,,114.0,2.5,,
112,,size_choice,,html-keyboard-response,112,365272,0.0-1.0-147.0,0,0,80,,567.0,,,50.0,36.0,36.0,1.0,500.0,S-L,1.0,L,S,3.0,1.0,dishwasher,teabag,dishwasher9,teabag7,28.0,136.0,/static/Size_judgement/Stimuli/Size_stims/L/dishwasher/dishwasher2.jpg,/static/Size_judgement/Stimuli/Size_stims/S/teabag/teabag10.jpg,1.0,dishwasher,teabag,L,S,3.0,1.0,dishwasher9,teabag7,1.0,116.5,0.567,0.0,
113,,size_choice_confirmation,,html-keyboard-response,113,366209,0.0-1.0-148.0-0.0,0,0,80,,,,,,36.0,,1.0,,,,,,,,,,,,,,,,,,,,,,,,,,117.067,0.933,,
114,,iti,,html-keyboard-response,114,366710,0.0-1.0-149.0,0,0,80,,,,,,36.0,,1.0,,,,,,,,,,,,,,,,,,,,,,,,,,118.0,0.5,,
115,,size_choice,,html-keyboard-response,115,367378,0.0-1.0-151.0,0,0,80,,666.0,,,50.0,37.0,37.0,1.0,1000.0,M-XL,0.0,M,XL,2.0,4.0,ketchup,van,ketchup1,van2,90.0,191.0,/static/Size_judgement/Stimuli/Size_stims/M/ketchup/ketchup8.jpg,/static/Size_judgement/Stimuli/Size_stims/XL/van/van4.jpg,1.0,ketchup,van,M,XL,2.0,4.0,ketchup1,van2,0.0,118.5,0.666,0.0,
116,,size_choice_confirmation,,html-keyboard-response,116,368214,0.0-1.0-152.0-0.0,0,0,80,,,,,,37.0,,1.0,,,,,,,,,,,,,,,,,,,,,,,,,,119.166,0.834,,
117,,iti,,html-keyboard-response,117,369219,0.0-1.0-153.0,0,0,80,,,,,,37.0,,1.0,,,,,,,,,,,,,,,,,,,,,,,,,,120.0,1.0,,
118,,size_choice,,html-keyboard-response,118,369601,0.0-1.0-155.0,0,0,80,,381.0,,,50.0,38.0,38.0,1.0,4000.0,M-L,0.0,M,L,2.0,3.0,coffeemaker,dishwasher,coffeemaker1,dishwasher7,60.0,26.0,/static/Size_judgement/Stimuli/Size_stims/M/coffeemaker/coffeemaker14.jpg,/static/Size_judgement/Stimuli/Size_stims/L/dishwasher/dishwasher7.jpg,1.0,coffeemaker,dishwasher,M,L,2.0,3.0,coffeemaker1,dishwasher7,0.0,121.0,0.381,0.0,
119,,size_choice_confirmation,,html-keyboard-response,119,370722,0.0-1.0-156.0-0.0,0,0,80,,,,,,38.0,,1.0,,,,,,,,,,,,,,,,,,,,,,,,,,121.381,1.119,,
120,,iti,,html-keyboard-response,120,374727,0.0-1.0-157.0,0,0,80,,,,,,38.0,,1.0,,,,,,,,,,,,,,,,,,,,,,,,,,122.5,4.0,,
121,,size_choice,,html-keyboard-response,121,375233,0.0-1.0-159.0,0,0,80,,505.0,,,50.0,39.0,39.0,1.0,1500.0,S-XL,0.0,S,XL,1.0,4.0,paperclip,crane,paperclip10,crane1,119.0,160.0,/static/Size_judgement/Stimuli/Size_stims/S/paperclip/paperclip10.jpg,/static/Size_judgement/Stimuli/Size_stims/XL/crane/crane7.jpg,1.0,paperclip,crane,S,XL,1.0,4.0,paperclip10,crane1,0.0,126.5,0.505,0.0,
122,,size_choice_confirmation,,html-keyboard-response,122,376231,0.0-1.0-160.0-0.0,0,0,80,,,,,,39.0,,1.0,,,,,,,,,,,,,,,,,,,,,,,,,,127.005,0.995,,
123,,iti,,html-keyboard-response,123,377735,0.0-1.0-161.0,0,0,80,,,,,,39.0,,1.0,,,,,,,,,,,,,,,,,,,,,,,,,,128.0,1.5,,
124,,size_choice,,html-keyboard-response,124,378345,0.0-1.0-163.0,0,0,80,,609.0,,,50.0,40.0,40.0,1.0,1500.0,S-XL,0.0,S,XL,1.0,4.0,screws,crane,screws6,crane6,125.0,165.0,/static/Size_judgement/Stimuli/Size_stims/S/screws/screws3.jpg,/static/Size_judgement/Stimuli/Size_stims/XL/crane/crane2.jpg,1.0,screws,crane,S,XL,1.0,4.0,screws6,crane6,0.0,129.5,0.609,0.0,
125,,size_choice_confirmation,,html-keyboard-response,125,379239,0.0-1.0-164.0-0.0,0,0,80,,,,,,40.0,,1.0,,,,,,,,,,,,,,,,,,,,,,,,,,130.109,0.891,,
126,,iti,,html-keyboard-response,126,380742,0.0-1.0-165.0,0,0,80,,,,,,40.0,,1.0,,,,,,,,,,,,,,,,,,,,,,,,,,131.0,1.5,,
127,,size_choice,,html-keyboard-response,127,381145,0.0-1.0-167.0,0,0,80,,401.0,,,50.0,41.0,41.0,1.0,2000.0,S-L,1.0,L,S,3.0,1.0,garbagecan,teabag,garbagecan6,teabag10,35.0,139.0,/static/Size_judgement/Stimuli/Size_stims/L/garbagecan/garbagecan14.jpg,/static/Size_judgement/Stimuli/Size_stims/S/teabag/teabag4.jpg,1.0,garbagecan,teabag,L,S,3.0,1.0,garbagecan6,teabag10,1.0,132.5,0.401,0.0,
128,,size_choice_confirmation,,html-keyboard-response,128,382245,0.0-1.0-168.0-0.0,0,0,80,,,,,,41.0,,1.0,,,,,,,,,,,,,,,,,,,,,,,,,,132.901,1.099,,
129,,iti,,html-keyboard-response,129,384247,0.0-1.0-169.0,0,0,80,,,,,,41.0,,1.0,,,,,,,,,,,,,,,,,,,,,,,,,,134.0,2.0,,
130,,size_choice,,html-keyboard-response,130,384738,0.0-1.0-171.0,0,0,80,,489.0,,,50.0,42.0,42.0,1.0,1000.0,XL-XL,,XL,XL,4.0,4.0,tractor,dumptruck,tractor5,dumptruck3,184.0,172.0,/static/Size_judgement/Stimuli/Size_stims/XL/tractor/tractor1.jpg,/static/Size_judgement/Stimuli/Size_stims/XL/dumptruck/dumptruck10.jpg,1.0,tractor,dumptruck,XL,XL,4.0,4.0,tractor5,dumptruck3,,136.0,0.489,0.0,
131,,size_choice_confirmation,,html-keyboard-response,131,385751,0.0-1.0-172.0-0.0,0,0,80,,,,,,42.0,,1.0,,,,,,,,,,,,,,,,,,,,,,,,,,136.489,1.011,,
132,,iti,,html-keyboard-response,132,386754,0.0-1.0-173.0,0,0,80,,,,,,42.0,,1.0,,,,,,,,,,,,,,,,,,,,,,,,,,137.5,1.0,,
133,,size_choice,,html-keyboard-response,133,387606,0.0-1.0-175.0,0,0,80,,851.0,,,50.0,43.0,43.0,1.0,2500.0,M-XL,1.0,XL,M,4.0,2.0,car,ketchup,car2,ketchup5,151.0,94.0,/static/Size_judgement/Stimuli/Size_stims/XL/car/car3.jpg,/static/Size_judgement/Stimuli/Size_stims/M/ketchup/ketchup3.jpg,1.0,car,ketchup,XL,M,4.0,2.0,car2,ketchup5,1.0,138.5,0.851,0.0,
134,,size_choice_confirmation,,html-keyboard-response,134,388257,0.0-1.0-176.0-0.0,0,0,80,,,,,,43.0,,1.0,,,,,,,,,,,,,,,,,,,,,,,,,,139.351,0.649,,
135,,iti,,html-keyboard-response,135,390760,0.0-1.0-177.0,0,0,80,,,,,,43.0,,1.0,,,,,,,,,,,,,,,,,,,,,,,,,,140.0,2.5,,
136,,size_choice,,html-keyboard-response,136,391410,0.0-1.0-179.0,0,0,80,,647.0,,,50.0,44.0,44.0,1.0,1000.0,L-L,,L,L,3.0,3.0,mailbox,cooler,mailbox1,cooler2,40.0,1.0,/static/Size_judgement/Stimuli/Size_stims/L/mailbox/mailbox3.jpg,/static/Size_judgement/Stimuli/Size_stims/L/cooler/cooler9.jpg,1.0,mailbox,cooler,L,L,3.0,3.0,mailbox1,cooler2,,142.5,0.647,0.0,
137,,size_choice_confirmation,,html-keyboard-response,137,392265,0.0-1.0-180.0-0.0,0,0,80,,,,,,44.0,,1.0,,,,,,,,,,,,,,,,,,,,,,,,,,143.147,0.853,,
138,,iti,,html-keyboard-response,138,393269,0.0-1.0-181.0,0,0,80,,,,,,44.0,,1.0,,,,,,,,,,,,,,,,,,,,,,,,,,144.0,1.0,,
139,,size_choice,,html-keyboard-response,139,393378,0.0-1.0-183.0,0,0,80,,107.0,,,50.0,45.0,45.0,1.0,500.0,M-XL,0.0,M,XL,2.0,4.0,handsaw,car,handsaw5,car10,84.0,159.0,/static/Size_judgement/Stimuli/Size_stims/M/handsaw/handsaw1.jpg,/static/Size_judgement/Stimuli/Size_stims/XL/car/car9.jpg,1.0,handsaw,car,M,XL,2.0,4.0,handsaw5,car10,0.0,145.0,0.107,0.0,
140,,size_choice_confirmation,,html-keyboard-response,140,394775,0.0-1.0-184.0-0.0,0,0,80,,,,,,45.0,,1.0,,,,,,,,,,,,,,,,,,,,,,,,,,145.107,1.393,,
141,,iti,,html-keyboard-response,141,395277,0.0-1.0-185.0,0,0,80,,,,,,45.0,,1.0,,,,,,,,,,,,,,,,,,,,,,,,,,146.5,0.5,,
142,,size_choice,,html-keyboard-response,142,395322,0.0-1.0-187.0,0,0,80,,44.0,,,50.0,46.0,46.0,1.0,1000.0,M-L,0.0,M,L,2.0,3.0,handsaw,mailbox,handsaw8,mailbox4,87.0,43.0,/static/Size_judgement/Stimuli/Size_stims/M/handsaw/handsaw7.jpg,/static/Size_judgement/Stimuli/Size_stims/L/mailbox/mailbox5.jpg,1.0,handsaw,mailbox,M,L,2.0,3.0,handsaw8,mailbox4,0.0,147.0,0.044,0.0,
143,,size_choice_confirmation,,html-keyboard-response,143,396780,0.0-1.0-188.0-0.0,0,0,80,,,,,,46.0,,1.0,,,,,,,,,,,,,,,,,,,,,,,,,,147.044,1.456,,
144,,iti,,html-keyboard-response,144,397785,0.0-1.0-189.0,0,0,80,,,,,,46.0,,1.0,,,,,,,,,,,,,,,,,,,,,,,,,,148.5,1.0,,
145,,size_choice,,html-keyboard-response,145,398379,0.0-1.0-191.0,0,0,80,,592.0,,,50.0,47.0,47.0,1.0,500.0,XL-XL,,XL,XL,4.0,4.0,tractor,van,tractor9,van6,188.0,195.0,/static/Size_judgement/Stimuli/Size_stims/XL/tractor/tractor9.jpg,/static/Size_judgement/Stimuli/Size_stims/XL/van/van2.jpg,1.0,tractor,van,XL,XL,4.0,4.0,tractor9,van6,,149.5,0.592,0.0,
146,,size_choice_confirmation,,html-keyboard-response,146,399292,0.0-1.0-192.0-0.0,0,0,80,,,,,,47.0,,1.0,,,,,,,,,,,,,,,,,,,,,,,,,,150.092,0.908,,
147,,iti,,html-keyboard-response,147,399794,0.0-1.0-193.0,0,0,80,,,,,,47.0,,1.0,,,,,,,,,,,,,,,,,,,,,,,,,,151.0,0.5,,
148,,size_choice,,html-keyboard-response,148,400314,0.0-1.0-195.0,0,0,80,,518.0,,,50.0,48.0,48.0,1.0,2000.0,S-S,,S,S,1.0,1.0,teabag,screws,teabag4,screws4,133.0,123.0,/static/Size_judgement/Stimuli/Size_stims/S/teabag/teabag3.jpg,/static/Size_judgement/Stimuli/Size_stims/S/screws/screws6.jpg,1.0,teabag,screws,S,S,1.0,1.0,teabag4,screws4,,151.5,0.518,0.0,
149,,size_choice_confirmation,,html-keyboard-response,149,401298,0.0-1.0-196.0-0.0,0,0,80,,,,,,48.0,,1.0,,,,,,,,,,,,,,,,,,,,,,,,,,152.018,0.982,,
150,,iti,,html-keyboard-response,150,403303,0.0-1.0-197.0,0,0,80,,,,,,48.0,,1.0,,,,,,,,,,,,,,,,,,,,,,,,,,153.0,2.0,,
151,,size_choice,,html-keyboard-response,151,403946,0.0-1.0-199.0,0,0,80,,641.0,,,50.0,49.0,49.0,1.0,1000.0,L-XL,1.0,XL,L,4.0,3.0,car,deskchair,car9,deskchair4,158.0,13.0,/static/Size_judgement/Stimuli/Size_stims/XL/car/car15.jpg,/static/Size_judgement/Stimuli/Size_stims/L/deskchair/deskchair6.jpg,1.0,car,deskchair,XL,L,4.0,3.0,car9,deskchair4,1.0,155.0,0.641,0.0,
152,,size_choice_confirmation,,html-keyboard-response,152,404807,0.0-1.0-200.0-0.0,0,0,80,,,,,,49.0,,1.0,,,,,,,,,,,,,,,,,,,,,,,,,,155.641,0.859,,
153,,iti,,html-keyboard-response,153,405810,0.0-1.0-201.0,0,0,80,,,,,,49.0,,1.0,,,,,,,,,,,,,,,,,,,,,,,,,,156.5,1.0,,
154,,size_choice,,html-keyboard-response,154,406147,0.0-1.0-203.0,0,0,80,,335.0,,,50.0,50.0,50.0,1.0,2000.0,L-L,,L,L,3.0,3.0,dishwasher,cooler,dishwasher10,cooler6,29.0,5.0,/static/Size_judgement/Stimuli/Size_stims/L/dishwasher/dishwasher1.jpg,/static/Size_judgement/Stimuli/Size_stims/L/cooler/cooler1.jpg,1.0,dishwasher,cooler,L,L,3.0,3.0,dishwasher10,cooler6,,157.5,0.335,0.0,
155,,size_choice_confirmation,,html-keyboard-response,155,407314,0.0-1.0-204.0-0.0,0,0,80,,,,,,50.0,,1.0,,,,,,,,,,,,,,,,,,,,,,,,,,157.835,1.165,,
156,,iti,,html-keyboard-response,156,409320,0.0-1.0-205.0,0,0,80,,,,,,50.0,,1.0,,,,,,,,,,,,,,,,,,,,,,,,,,159.0,2.0,,
157,,size_choice,,html-keyboard-response,157,409738,0.0-1.0-207.0,0,0,80,,417.0,,,50.0,51.0,51.0,1.0,500.0,M-XL,0.0,M,XL,2.0,4.0,coffeemaker,tractor,coffeemaker6,tractor3,65.0,182.0,/static/Size_judgement/Stimuli/Size_stims/M/coffeemaker/coffeemaker8.jpg,/static/Size_judgement/Stimuli/Size_stims/XL/tractor/tractor5.jpg,1.0,coffeemaker,tractor,M,XL,2.0,4.0,coffeemaker6,tractor3,0.0,161.0,0.417,0.0,
158,,size_choice_confirmation,,html-keyboard-response,158,410823,0.0-1.0-208.0-0.0,0,0,80,,,,,,51.0,,1.0,,,,,,,,,,,,,,,,,,,,,,,,,,161.417,1.083,,
159,,iti,,html-keyboard-response,159,411327,0.0-1.0-209.0,0,0,80,,,,,,51.0,,1.0,,,,,,,,,,,,,,,,,,,,,,,,,,162.5,0.5,,
160,,size_choice,,html-keyboard-response,160,412834,0.0-1.0-211.0,0,0,80,,,,,,52.0,52.0,1.0,500.0,M-M,,M,M,2.0,2.0,coffeemaker,hairdryer,coffeemaker7,hairdryer5,66.0,74.0,/static/Size_judgement/Stimuli/Size_stims/M/coffeemaker/coffeemaker9.jpg,/static/Size_judgement/Stimuli/Size_stims/M/hairdryer/hairdryer15.jpg,,,,,,,,,,,163.0,1.5,1.0,
161,,iti,,html-keyboard-response,161,413336,0.0-1.0-213.0,0,0,80,,,,,,52.0,,1.0,,,,,,,,,,,,,,,,,,,,,,,,,,164.5,0.5,,
162,,size_choice,,html-keyboard-response,162,414839,0.0-1.0-215.0,0,0,80,,,,,,53.0,53.0,1.0,500.0,M-M,,M,M,2.0,2.0,handsaw,ketchup,handsaw10,ketchup8,89.0,97.0,/static/Size_judgement/Stimuli/Size_stims/M/handsaw/handsaw10.jpg,/static/Size_judgement/Stimuli/Size_stims/M/ketchup/ketchup5.jpg,,,,,,,,,,,165.0,1.5,1.0,
163,,iti,,html-keyboard-response,163,415341,0.0-1.0-217.0,0,0,80,,,,,,53.0,,1.0,,,,,,,,,,,,,,,,,,,,,,,,,,166.5,0.5,,
164,,size_choice,,html-keyboard-response,164,416848,0.0-1.0-219.0,0,0,80,,,,,,54.0,54.0,1.0,500.0,S-M,0.0,S,M,1.0,2.0,paperclip,basketball,paperclip7,basketball8,116.0,57.0,/static/Size_judgement/Stimuli/Size_stims/S/paperclip/paperclip7.jpg,/static/Size_judgement/Stimuli/Size_stims/M/basketball/basketball7.jpg,,,,,,,,,,,167.0,1.5,1.0,
165,,iti,,html-keyboard-response,165,417349,0.0-1.0-221.0,0,0,80,,,,,,54.0,,1.0,,,,,,,,,,,,,,,,,,,,,,,,,,168.5,0.5,,
166,,size_choice,,html-keyboard-response,166,418855,0.0-1.0-223.0,0,0,80,,,,,,55.0,55.0,1.0,1000.0,S-XL,1.0,XL,S,4.0,1.0,van,screws,van5,screws1,194.0,120.0,/static/Size_judgement/Stimuli/Size_stims/XL/van/van3.jpg,/static/Size_judgement/Stimuli/Size_stims/S/screws/screws4.jpg,,,,,,,,,,,169.0,1.5,1.0,
167,,iti,,html-keyboard-response,167,419860,0.0-1.0-225.0,0,0,80,,,,,,55.0,,1.0,,,,,,,,,,,,,,,,,,,,,,,,,,170.5,1.0,,
168,,size_choice,,html-keyboard-response,168,421363,0.0-1.0-227.0,0,0,80,,,,,,56.0,56.0,1.0,500.0,M-L,0.0,M,L,2.0,3.0,coffeemaker,cooler,coffeemaker4,cooler10,63.0,9.0,/static/Size_judgement/Stimuli/Size_stims/M/coffeemaker/coffeemaker11.jpg,/static/Size_judgement/Stimuli/Size_stims/L/cooler/cooler6.jpg,,,,,,,,,,,171.5,1.5,1.0,
169,,iti,,html-keyboard-response,169,421866,0.0-1.0-229.0,0,0,80,,,,,,56.0,,1.0,,,,,,,,,,,,,,,,,,,,,,,,,,173.0,0.5,,
170,,size_choice,,html-keyboard-response,170,423368,0.0-1.0-231.0,0,0,80,,,,,,57.0,57.0,1.0,4500.0,S-L,1.0,L,S,3.0,1.0,garbagecan,die,garbagecan8,die7,37.0,106.0,/static/Size_judgement/Stimuli/Size_stims/L/garbagecan/garbagecan13.jpg,/static/Size_judgement/Stimuli/Size_stims/S/die/die4.jpg,,,,,,,,,,,173.5,1.5,1.0,
171,,iti,,html-keyboard-response,171,427874,0.0-1.0-233.0,0,0,80,,,,,,57.0,,1.0,,,,,,,,,,,,,,,,,,,,,,,,,,175.0,4.5,,
172,,size_choice,,html-keyboard-response,172,429379,0.0-1.0-235.0,0,0,80,,,,,,58.0,58.0,1.0,1500.0,S-L,0.0,S,L,1.0,3.0,die,deskchair,die3,deskchair6,102.0,15.0,/static/Size_judgement/Stimuli/Size_stims/S/die/die10.jpg,/static/Size_judgement/Stimuli/Size_stims/L/deskchair/deskchair5.jpg,,,,,,,,,,,179.5,1.5,1.0,
173,,iti,,html-keyboard-response,173,430883,0.0-1.0-237.0,0,0,80,,,,,,58.0,,1.0,,,,,,,,,,,,,,,,,,,,,,,,,,181.0,1.5,,
174,,size_choice,,html-keyboard-response,174,432386,0.0-1.0-239.0,0,0,80,,,,,,59.0,59.0,1.0,5000.0,S-M,0.0,S,M,1.0,2.0,teabag,hairdryer,teabag6,hairdryer1,135.0,70.0,/static/Size_judgement/Stimuli/Size_stims/S/teabag/teabag6.jpg,/static/Size_judgement/Stimuli/Size_stims/M/hairdryer/hairdryer11.jpg,,,,,,,,,,,182.5,1.5,1.0,
175,,iti,,html-keyboard-response,175,437389,0.0-1.0-241.0,0,0,80,,,,,,59.0,,1.0,,,,,,,,,,,,,,,,,,,,,,,,,,184.0,5.0,,
176,,size_choice,,html-keyboard-response,176,438895,0.0-1.0-243.0,0,0,80,,,,,,60.0,60.0,1.0,500.0,M-XL,1.0,XL,M,4.0,2.0,dumptruck,hairdryer,dumptruck5,hairdryer4,174.0,73.0,/static/Size_judgement/Stimuli/Size_stims/XL/dumptruck/dumptruck3.jpg,/static/Size_judgement/Stimuli/Size_stims/M/hairdryer/hairdryer16.jpg,,,,,,,,,,,189.0,1.5,1.0,
177,,iti,,html-keyboard-response,177,439398,0.0-1.0-245.0,0,0,80,,,,,,60.0,,1.0,,,,,,,,,,,,,,,,,,,,,,,,,,190.5,0.5,,
178,,size_choice,,html-keyboard-response,178,440904,0.0-1.0-247.0,0,0,80,,,,,,61.0,61.0,1.0,1500.0,S-XL,1.0,XL,S,4.0,1.0,van,thread,van1,thread9,190.0,148.0,/static/Size_judgement/Stimuli/Size_stims/XL/van/van5.jpg,/static/Size_judgement/Stimuli/Size_stims/S/thread/thread8.jpg,,,,,,,,,,,191.0,1.5,1.0,
179,,iti,,html-keyboard-response,179,442409,0.0-1.0-249.0,0,0,80,,,,,,61.0,,1.0,,,,,,,,,,,,,,,,,,,,,,,,,,192.5,1.5,,
180,,size_choice,,html-keyboard-response,180,443913,0.0-1.0-251.0,0,0,80,,,,,,62.0,62.0,1.0,2000.0,L-XL,0.0,L,XL,3.0,4.0,mailbox,tractor,mailbox6,tractor2,45.0,181.0,/static/Size_judgement/Stimuli/Size_stims/L/mailbox/mailbox6.jpg,/static/Size_judgement/Stimuli/Size_stims/XL/tractor/tractor7.jpg,,,,,,,,,,,194.0,1.5,1.0,
181,,iti,,html-keyboard-response,181,445920,0.0-1.0-253.0,0,0,80,,,,,,62.0,,1.0,,,,,,,,,,,,,,,,,,,,,,,,,,195.5,2.0,,
182,,size_choice,,html-keyboard-response,182,447427,0.0-1.0-255.0,0,0,80,,,,,,63.0,63.0,1.0,1500.0,M-XL,0.0,M,XL,2.0,4.0,handsaw,car,handsaw7,car3,86.0,152.0,/static/Size_judgement/Stimuli/Size_stims/M/handsaw/handsaw5.jpg,/static/Size_judgement/Stimuli/Size_stims/XL/car/car4.jpg,,,,,,,,,,,197.5,1.5,1.0,
183,,iti,,html-keyboard-response,183,448933,0.0-1.0-257.0,0,0,80,,,,,,63.0,,1.0,,,,,,,,,,,,,,,,,,,,,,,,,,199.0,1.5,,
184,,size_choice,,html-keyboard-response,184,450437,0.0-1.0-259.0,0,0,80,,,,,,64.0,64.0,1.0,3000.0,S-S,,S,S,1.0,1.0,screws,die,screws7,die4,126.0,103.0,/static/Size_judgement/Stimuli/Size_stims/S/screws/screws1.jpg,/static/Size_judgement/Stimuli/Size_stims/S/die/die2.jpg,,,,,,,,,,,200.5,1.5,1.0,
185,,iti,,html-keyboard-response,185,453439,0.0-1.0-261.0,0,0,80,,,,,,64.0,,1.0,,,,,,,,,,,,,,,,,,,,,,,,,,202.0,3.0,,
186,,size_choice,,html-keyboard-response,186,454944,0.0-1.0-263.0,0,0,80,,,,,,65.0,65.0,1.0,1000.0,M-XL,0.0,M,XL,2.0,4.0,handsaw,tractor,handsaw1,tractor4,80.0,183.0,/static/Size_judgement/Stimuli/Size_stims/M/handsaw/handsaw8.jpg,/static/Size_judgement/Stimuli/Size_stims/XL/tractor/tractor4.jpg,,,,,,,,,,,205.0,1.5,1.0,
187,,iti,,html-keyboard-response,187,455947,0.0-1.0-265.0,0,0,80,,,,,,65.0,,1.0,,,,,,,,,,,,,,,,,,,,,,,,,,206.5,1.0,,
188,,size_choice,,html-keyboard-response,188,457451,0.0-1.0-267.0,0,0,80,,,,,,66.0,66.0,1.0,5000.0,M-L,0.0,M,L,2.0,3.0,basketball,deskchair,basketball4,deskchair9,53.0,18.0,/static/Size_judgement/Stimuli/Size_stims/M/basketball/basketball1.jpg,/static/Size_judgement/Stimuli/Size_stims/L/deskchair/deskchair3.jpg,,,,,,,,,,,207.5,1.5,1.0,
189,,iti,,html-keyboard-response,189,462457,0.0-1.0-269.0,0,0,80,,,,,,66.0,,1.0,,,,,,,,,,,,,,,,,,,,,,,,,,209.0,5.0,,
190,,size_choice,,html-keyboard-response,190,463962,0.0-1.0-271.0,0,0,80,,,,,,67.0,67.0,1.0,1500.0,S-S,,S,S,1.0,1.0,paperclip,die,paperclip9,die1,118.0,100.0,/static/Size_judgement/Stimuli/Size_stims/S/paperclip/paperclip4.jpg,/static/Size_judgement/Stimuli/Size_stims/S/die/die8.jpg,,,,,,,,,,,214.0,1.5,1.0,
191,,iti,,html-keyboard-response,191,465465,0.0-1.0-273.0,0,0,80,,,,,,67.0,,1.0,,,,,,,,,,,,,,,,,,,,,,,,,,215.5,1.5,,
192,,size_choice,,html-keyboard-response,192,466969,0.0-1.0-275.0,0,0,80,,,,,,68.0,68.0,1.0,5500.0,S-M,0.0,S,M,1.0,2.0,thread,basketball,thread1,basketball2,140.0,51.0,/static/Size_judgement/Stimuli/Size_stims/S/thread/thread7.jpg,/static/Size_judgement/Stimuli/Size_stims/M/basketball/basketball8.jpg,,,,,,,,,,,217.0,1.5,1.0,
193,,iti,,html-keyboard-response,193,472473,0.0-1.0-277.0,0,0,80,,,,,,68.0,,1.0,,,,,,,,,,,,,,,,,,,,,,,,,,218.5,5.5,,
194,,size_choice,,html-keyboard-response,194,473979,0.0-1.0-279.0,0,0,80,,,,,,69.0,69.0,1.0,4500.0,S-XL,1.0,XL,S,4.0,1.0,dumptruck,screws,dumptruck6,screws8,175.0,127.0,/static/Size_judgement/Stimuli/Size_stims/XL/dumptruck/dumptruck2.jpg,/static/Size_judgement/Stimuli/Size_stims/S/screws/screws10.jpg,,,,,,,,,,,224.0,1.5,1.0,
195,,iti,,html-keyboard-response,195,478484,0.0-1.0-281.0,0,0,80,,,,,,69.0,,1.0,,,,,,,,,,,,,,,,,,,,,,,,,,225.5,4.5,,
196,,size_choice,,html-keyboard-response,196,479989,0.0-1.0-283.0,0,0,80,,,,,,70.0,70.0,1.0,1500.0,S-S,,S,S,1.0,1.0,paperclip,teabag,paperclip8,teabag2,117.0,131.0,/static/Size_judgement/Stimuli/Size_stims/S/paperclip/paperclip5.jpg,/static/Size_judgement/Stimuli/Size_stims/S/teabag/teabag8.jpg,,,,,,,,,,,230.0,1.5,1.0,
197,,iti,,html-keyboard-response,197,481494,0.0-1.0-285.0,0,0,80,,,,,,70.0,,1.0,,,,,,,,,,,,,,,,,,,,,,,,,,231.5,1.5,,
198,,size_choice,,html-keyboard-response,198,482999,0.0-1.0-287.0,0,0,80,,,,,,71.0,71.0,1.0,2000.0,XL-XL,,XL,XL,4.0,4.0,tractor,van,tractor1,van10,180.0,199.0,/static/Size_judgement/Stimuli/Size_stims/XL/tractor/tractor6.jpg,/static/Size_judgement/Stimuli/Size_stims/XL/van/van8.jpg,,,,,,,,,,,233.0,1.5,1.0,
199,,iti,,html-keyboard-response,199,485001,0.0-1.0-289.0,0,0,80,,,,,,71.0,,1.0,,,,,,,,,,,,,,,,,,,,,,,,,,234.5,2.0,,
200,,size_choice,,html-keyboard-response,200,486503,0.0-1.0-291.0,0,0,80,,,,,,72.0,72.0,1.0,2000.0,S-XL,1.0,XL,S,4.0,1.0,crane,thread,crane3,thread4,162.0,143.0,/static/Size_judgement/Stimuli/Size_stims/XL/crane/crane4.jpg,/static/Size_judgement/Stimuli/Size_stims/S/thread/thread5.jpg,,,,,,,,,,,236.5,1.5,1.0,
201,,iti,,html-keyboard-response,201,488506,0.0-1.0-293.0,0,0,80,,,,,,72.0,,1.0,,,,,,,,,,,,,,,,,,,,,,,,,,238.0,2.0,,
202,,size_choice,,html-keyboard-response,202,490010,0.0-1.0-295.0,0,0,80,,,,,,73.0,73.0,1.0,1500.0,S-XL,0.0,S,XL,1.0,4.0,teabag,crane,teabag5,crane7,134.0,166.0,/static/Size_judgement/Stimuli/Size_stims/S/teabag/teabag2.jpg,/static/Size_judgement/Stimuli/Size_stims/XL/crane/crane3.jpg,,,,,,,,,,,240.0,1.5,1.0,
203,,iti,,html-keyboard-response,203,491514,0.0-1.0-297.0,0,0,80,,,,,,73.0,,1.0,,,,,,,,,,,,,,,,,,,,,,,,,,241.5,1.5,,
204,,size_choice,,html-keyboard-response,204,493018,0.0-1.0-299.0,0,0,80,,,,,,74.0,74.0,1.0,4500.0,L-L,,L,L,3.0,3.0,dishwasher,garbagecan,dishwasher5,garbagecan5,24.0,34.0,/static/Size_judgement/Stimuli/Size_stims/L/dishwasher/dishwasher4.jpg,/static/Size_judgement/Stimuli/Size_stims/L/garbagecan/garbagecan3.jpg,,,,,,,,,,,243.0,1.5,1.0,
205,,iti,,html-keyboard-response,205,497522,0.0-1.0-301.0,0,0,80,,,,,,74.0,,1.0,,,,,,,,,,,,,,,,,,,,,,,,,,244.5,4.5,,
206,,size_choice,,html-keyboard-response,206,499023,0.0-1.0-303.0,0,0,80,,,,,,75.0,75.0,1.0,500.0,M-L,1.0,L,M,3.0,2.0,cooler,ketchup,cooler5,ketchup10,4.0,99.0,/static/Size_judgement/Stimuli/Size_stims/L/cooler/cooler10.jpg,/static/Size_judgement/Stimuli/Size_stims/M/ketchup/ketchup6.jpg,,,,,,,,,,,249.0,1.5,1.0,
207,,iti,,html-keyboard-response,207,499525,0.0-1.0-305.0,0,0,80,,,,,,75.0,,1.0,,,,,,,,,,,,,,,,,,,,,,,,,,250.5,0.5,,
208,,size_choice,,html-keyboard-response,208,501028,0.0-1.0-307.0,0,0,80,,,,,,76.0,76.0,1.0,1000.0,S-XL,1.0,XL,S,4.0,1.0,tractor,die,tractor7,die9,186.0,108.0,/static/Size_judgement/Stimuli/Size_stims/XL/tractor/tractor2.jpg,/static/Size_judgement/Stimuli/Size_stims/S/die/die7.jpg,,,,,,,,,,,251.0,1.5,1.0,
209,,iti,,html-keyboard-response,209,502032,0.0-1.0-309.0,0,0,80,,,,,,76.0,,1.0,,,,,,,,,,,,,,,,,,,,,,,,,,252.5,1.0,,
210,,size_choice,,html-keyboard-response,210,503538,0.0-1.0-311.0,0,0,80,,,,,,77.0,77.0,1.0,1000.0,S-L,1.0,L,S,3.0,1.0,deskchair,thread,deskchair3,thread10,12.0,149.0,/static/Size_judgement/Stimuli/Size_stims/L/deskchair/deskchair10.jpg,/static/Size_judgement/Stimuli/Size_stims/S/thread/thread9.jpg,,,,,,,,,,,253.5,1.5,1.0,
211,,iti,,html-keyboard-response,211,504542,0.0-1.0-313.0,0,0,80,,,,,,77.0,,1.0,,,,,,,,,,,,,,,,,,,,,,,,,,255.0,1.0,,
212,,size_choice,,html-keyboard-response,212,506047,0.0-1.0-315.0,0,0,80,,,,,,78.0,78.0,1.0,1000.0,M-L,1.0,L,M,3.0,2.0,dishwasher,basketball,dishwasher6,basketball10,25.0,59.0,/static/Size_judgement/Stimuli/Size_stims/L/dishwasher/dishwasher6.jpg,/static/Size_judgement/Stimuli/Size_stims/M/basketball/basketball4.jpg,,,,,,,,,,,256.0,1.5,1.0,
213,,iti,,html-keyboard-response,213,507050,0.0-1.0-317.0,0,0,80,,,,,,78.0,,1.0,,,,,,,,,,,,,,,,,,,,,,,,,,257.5,1.0,,
214,,size_choice,,html-keyboard-response,214,508555,0.0-1.0-319.0,0,0,80,,,,,,79.0,79.0,1.0,3500.0,M-L,0.0,M,L,2.0,3.0,basketball,deskchair,basketball9,deskchair2,58.0,11.0,/static/Size_judgement/Stimuli/Size_stims/M/basketball/basketball5.jpg,/static/Size_judgement/Stimuli/Size_stims/L/deskchair/deskchair8.jpg,,,,,,,,,,,258.5,1.5,1.0,
215,,iti,,html-keyboard-response,215,512059,0.0-1.0-321.0,0,0,80,,,,,,79.0,,1.0,,,,,,,,,,,,,,,,,,,,,,,,,,260.0,3.5,,
216,,size_choice,,html-keyboard-response,216,513563,0.0-1.0-323.0,0,0,80,,,,,,80.0,80.0,1.0,3000.0,S-XL,0.0,S,XL,1.0,4.0,paperclip,car,paperclip4,car1,113.0,150.0,/static/Size_judgement/Stimuli/Size_stims/S/paperclip/paperclip3.jpg,/static/Size_judgement/Stimuli/Size_stims/XL/car/car2.jpg,,,,,,,,,,,263.5,1.5,1.0,
217,,iti,,html-keyboard-response,217,516566,0.0-1.0-325.0,0,0,80,,,,,,80.0,,1.0,,,,,,,,,,,,,,,,,,,,,,,,,,265.0,3.0,,
218,,size_choice,,html-keyboard-response,218,518071,0.0-1.0-327.0,0,0,80,,,,,,81.0,81.0,1.0,3000.0,S-XL,0.0,S,XL,1.0,4.0,paperclip,crane,paperclip3,crane2,112.0,161.0,/static/Size_judgement/Stimuli/Size_stims/S/paperclip/paperclip1.jpg,/static/Size_judgement/Stimuli/Size_stims/XL/crane/crane6.jpg,,,,,,,,,,,268.0,1.5,1.0,
219,,iti,,html-keyboard-response,219,521076,0.0-1.0-329.0,0,0,80,,,,,,81.0,,1.0,,,,,,,,,,,,,,,,,,,,,,,,,,269.5,3.0,,
220,,size_choice,,html-keyboard-response,220,522582,0.0-1.0-331.0,0,0,80,,,,,,82.0,82.0,1.0,6000.0,L-XL,1.0,XL,L,4.0,3.0,car,deskchair,car7,deskchair8,156.0,17.0,/static/Size_judgement/Stimuli/Size_stims/XL/car/car13.jpg,/static/Size_judgement/Stimuli/Size_stims/L/deskchair/deskchair1.jpg,,,,,,,,,,,272.5,1.5,1.0,
221,,iti,,html-keyboard-response,221,528587,0.0-1.0-333.0,0,0,80,,,,,,82.0,,1.0,,,,,,,,,,,,,,,,,,,,,,,,,,274.0,6.0,,
222,,size_choice,,html-keyboard-response,222,530091,0.0-1.0-335.0,0,0,80,,,,,,83.0,83.0,1.0,1500.0,S-M,0.0,S,M,1.0,2.0,screws,handsaw,screws3,handsaw3,122.0,82.0,/static/Size_judgement/Stimuli/Size_stims/S/screws/screws7.jpg,/static/Size_judgement/Stimuli/Size_stims/M/handsaw/handsaw2.jpg,,,,,,,,,,,280.0,1.5,1.0,
223,,iti,,html-keyboard-response,223,531595,0.0-1.0-337.0,0,0,80,,,,,,83.0,,1.0,,,,,,,,,,,,,,,,,,,,,,,,,,281.5,1.5,,
224,,size_choice,,html-keyboard-response,224,533099,0.0-1.0-339.0,0,0,80,,,,,,84.0,84.0,1.0,4000.0,M-L,0.0,M,L,2.0,3.0,basketball,dishwasher,basketball6,dishwasher1,55.0,20.0,/static/Size_judgement/Stimuli/Size_stims/M/basketball/basketball2.jpg,/static/Size_judgement/Stimuli/Size_stims/L/dishwasher/dishwasher10.jpg,,,,,,,,,,,283.0,1.5,1.0,
225,,iti,,html-keyboard-response,225,537105,0.0-1.0-341.0,0,0,80,,,,,,84.0,,1.0,,,,,,,,,,,,,,,,,,,,,,,,,,284.5,4.0,,
226,,size_choice,,html-keyboard-response,226,538609,0.0-1.0-343.0,0,0,80,,,,,,85.0,85.0,1.0,1000.0,S-L,0.0,S,L,1.0,3.0,die,dishwasher,die8,dishwasher3,107.0,22.0,/static/Size_judgement/Stimuli/Size_stims/S/die/die5.jpg,/static/Size_judgement/Stimuli/Size_stims/L/dishwasher/dishwasher8.jpg,,,,,,,,,,,288.5,1.5,1.0,
227,,iti,,html-keyboard-response,227,539611,0.0-1.0-345.0,0,0,80,,,,,,85.0,,1.0,,,,,,,,,,,,,,,,,,,,,,,,,,290.0,1.0,,
228,,size_choice,,html-keyboard-response,228,541115,0.0-1.0-347.0,0,0,80,,,,,,86.0,86.0,1.0,1000.0,S-XL,1.0,XL,S,4.0,1.0,dumptruck,teabag,dumptruck9,teabag3,178.0,132.0,/static/Size_judgement/Stimuli/Size_stims/XL/dumptruck/dumptruck5.jpg,/static/Size_judgement/Stimuli/Size_stims/S/teabag/teabag1.jpg,,,,,,,,,,,291.0,1.5,1.0,
229,,iti,,html-keyboard-response,229,542118,0.0-1.0-349.0,0,0,80,,,,,,86.0,,1.0,,,,,,,,,,,,,,,,,,,,,,,,,,292.5,1.0,,
230,,size_choice,,html-keyboard-response,230,543623,0.0-1.0-351.0,0,0,80,,,,,,87.0,87.0,1.0,500.0,S-L,1.0,L,S,3.0,1.0,deskchair,thread,deskchair5,thread6,14.0,145.0,/static/Size_judgement/Stimuli/Size_stims/L/deskchair/deskchair7.jpg,/static/Size_judgement/Stimuli/Size_stims/S/thread/thread2.jpg,,,,,,,,,,,293.5,1.5,1.0,
231,,iti,,html-keyboard-response,231,544124,0.0-1.0-353.0,0,0,80,,,,,,87.0,,1.0,,,,,,,,,,,,,,,,,,,,,,,,,,295.0,0.5,,
232,,size_choice,,html-keyboard-response,232,545631,0.0-1.0-355.0,0,0,80,,,,,,88.0,88.0,1.0,1000.0,M-L,0.0,M,L,2.0,3.0,hairdryer,garbagecan,hairdryer6,garbagecan3,75.0,32.0,/static/Size_judgement/Stimuli/Size_stims/M/hairdryer/hairdryer8.jpg,/static/Size_judgement/Stimuli/Size_stims/L/garbagecan/garbagecan7.jpg,,,,,,,,,,,295.5,1.5,1.0,
233,,iti,,html-keyboard-response,233,546636,0.0-1.0-357.0,0,0,80,,,,,,88.0,,1.0,,,,,,,,,,,,,,,,,,,,,,,,,,297.0,1.0,,
234,,size_choice,,html-keyboard-response,234,548138,0.0-1.0-359.0,0,0,80,,,,,,89.0,89.0,1.0,1500.0,S-L,1.0,L,S,3.0,1.0,mailbox,thread,mailbox8,thread8,47.0,147.0,/static/Size_judgement/Stimuli/Size_stims/L/mailbox/mailbox10.jpg,/static/Size_judgement/Stimuli/Size_stims/S/thread/thread10.jpg,,,,,,,,,,,298.0,1.5,1.0,
235,,iti,,html-keyboard-response,235,549644,0.0-1.0-361.0,0,0,80,,,,,,89.0,,1.0,,,,,,,,,,,,,,,,,,,,,,,,,,299.5,1.5,,0.57
236,,size_final_tally,,html-keyboard-response,236,889401,0.0-2.0,0,0,80,,339754.0,,,50.0,,,,,,,,,,,,,,,,,,,,,,,,,,,,,,,,
